timestamp, heartRate, gyroscopeX, gyroscopeY, gyroscopeZ, gyroscopeRotationX, gyroscopeRotationY, gyroscopeRotationZ, light
1.57632E+12,0,-13.86,5.46,8.54,0.593,0.75,-0.017,62
1.57632E+12,0,-10.36,2.87,6.58,0.5,0.738,-0.089,27
1.57632E+12,0,-4.83,3.5,-0.77,0.492,0.737,-0.092,19
1.57632E+12,0,24.71,-3.01,-6.65,0.47,0.728,-0.122,18
1.57632E+12,0,-15.33,3.22,0.56,0.476,0.744,-0.064,26
1.57632E+12,0,-8.75,-1.05,0.35,0.472,0.742,-0.07,17
1.57632E+12,0,-0.63,-0.14,-0.35,0.46,0.738,-0.081,15
1.57632E+12,0,0.56,-0.14,-0.14,0.464,0.738,-0.081,15
1.57632E+12,0,-0.49,0.14,-0.28,0.464,0.737,-0.086,16
1.57632E+12,0,-0.84,0.91,-0.07,0.462,0.736,-0.085,14
1.57632E+12,0,-2.59,2.17,-1.96,0.619,0.751,0.016,79
1.57632E+12,0,-1.54,0.21,0.28,0.592,0.74,-0.045,62
1.57632E+12,0,-8.89,0.21,-1.82,0.575,0.733,-0.057,70
1.57632E+12,0,-3.64,0.42,1.4,0.58,0.734,-0.052,67
1.57632E+12,0,5.32,3.43,2.59,0.586,0.733,-0.054,62
1.57632E+12,68,-0.63,-0.14,-0.84,0.585,0.737,-0.051,64
1.57632E+12,68,0.7,0.07,0.35,0.583,0.736,-0.049,64
1.57632E+12,68,0.21,0.07,0.14,0.582,0.736,-0.051,63
1.57632E+12,68,-1.54,-1.61,-1.89,0.587,0.735,-0.053,65
1.57632E+12,68,-0.49,0.98,0.98,0.584,0.734,-0.054,61
1.57632E+12,67,0.42,0.35,0.07,0.586,0.735,-0.055,61
1.57632E+12,67,-0.14,0.14,-0.28,0.585,0.734,-0.056,62
1.57632E+12,67,0.28,0.07,-0.07,0.585,0.733,-0.057,61
1.57632E+12,67,-2.94,-1.61,-3.22,0.583,0.734,-0.053,58
1.57632E+12,67,-6.16,-8.68,0.77,0.591,0.733,-0.075,47
1.57632E+12,66,-2.17,0.63,-0.14,0.536,0.704,-0.172,12
1.57632E+12,66,1.05,-0.49,0.77,0.538,0.707,-0.162,7
1.57632E+12,66,0.49,-0.21,-0.07,0.543,0.708,-0.16,6
1.57632E+12,66,-0.42,0.14,0.63,0.548,0.708,-0.16,12
1.57632E+12,66,4.9,-1.82,-1.89,0.593,0.717,-0.124,19
1.57632E+12,66,-0.7,-0.21,-0.98,0.588,0.721,-0.112,16
1.57632E+12,66,-0.21,-0.42,0.14,0.582,0.719,-0.119,20
1.57632E+12,66,0.42,-0.07,-1.26,0.574,0.72,-0.111,23
1.57632E+12,66,-2.59,1.96,1.26,0.572,0.717,-0.13,25
1.57632E+12,66,-0.49,-0.21,0.42,0.566,0.711,-0.149,36
1.57632E+12,66,66.99,-5.6,30.8,0.568,0.71,-0.158,19
1.57632E+12,66,-5.32,5.39,19.6,0.446,0.76,0.121,31
1.57632E+12,66,-1.82,-3.01,-3.15,0.467,0.76,0.138,23
1.57632E+12,66,-24.64,-27.3,-46.2,0.493,0.74,0.01,36
1.57632E+12,66,24.08,-2.17,-9.94,0.665,0.695,-0.093,37
1.57632E+12,66,-42,6.72,8.4,0.567,0.699,-0.059,18
1.57632E+12,66,3.29,2.94,1.12,0.344,0.716,-0.018,6
1.57632E+12,66,4.69,-8.54,-7.35,0.346,0.712,-0.036,6
1.57632E+12,66,22.26,-21.84,-16.38,0.571,0.675,-0.151,13
1.57632E+12,66,13.58,-23.17,0.14,0.56,0.693,-0.147,38
1.57632E+12,66,-27.72,-0.84,6.37,0.571,0.684,-0.13,48
1.57632E+12,66,3.29,-0.91,0.56,0.581,0.673,-0.157,25
1.57632E+12,66,-1.12,-0.91,-1.61,0.581,0.678,-0.144,29
1.57632E+12,66,0.14,0.35,0.35,0.579,0.678,-0.147,29
1.57632E+12,66,-48.3,-84.84,-2.87,0.586,0.644,-0.278,30
1.57632E+12,66,145.53,136.08,38.01,0.582,0.709,-0.129,3
1.57632E+12,66,-52.85,-1.61,0.63,0.546,0.716,-0.122,51
1.57632E+12,66,-2.31,-1.12,-1.68,0.555,0.711,-0.134,23
1.57632E+12,66,0.21,-3.99,-6.79,0.575,0.696,-0.176,22
1.57632E+12,66,0.28,-2.52,-1.82,0.568,0.692,-0.191,23
1.57632E+12,66,-9.87,-1.89,0.7,0.568,0.696,-0.179,20
1.57632E+12,66,5.88,-0.28,-0.63,0.566,0.693,-0.195,15
1.57632E+12,0,1.54,0.91,0.84,0.57,0.694,-0.189,18
1.57632E+12,0,4.9,-1.75,-2.87,0.56,0.694,-0.19,17
1.57632E+12,0,-8.75,-2.03,-0.98,0.556,0.69,-0.203,17
1.57632E+12,0,0.28,0.07,0.07,0.559,0.69,-0.204,18
1.57632E+12,0,-0.28,0.14,-0.07,0.557,0.689,-0.205,16
1.57632E+12,0,10.22,-6.79,-21.84,0.571,0.671,-0.242,18
1.57632E+12,0,-31.92,-5.74,5.32,0.419,0.554,-0.437,3
1.57632E+12,0,2.45,0.21,1.12,0.388,0.542,-0.446,3
1.57632E+12,0,-2.24,0.35,-3.71,0.407,0.608,-0.368,3
1.57632E+12,0,-2.17,-1.68,-0.28,0.395,0.597,-0.382,3
1.57632E+12,0,-27.72,-1.54,29.75,0.4,0.574,-0.412,4
1.57632E+12,0,0.49,-1.47,0.84,0.49,0.644,-0.318,3
1.57632E+12,0,20.44,27.51,1.82,0.453,0.657,-0.278,4
1.57632E+12,0,-17.29,16.94,6.72,0.342,0.697,-0.134,9
1.57632E+12,0,18.76,-15.68,12.81,0.322,0.683,-0.187,6
1.57632E+12,0,-3.85,-6.02,-2.87,0.332,0.681,-0.197,4
1.57632E+12,0,-4.55,-2.59,-1.33,0.323,0.675,-0.213,4
1.57632E+12,0,0.21,-0.07,0.42,0.344,0.673,-0.219,5
1.57632E+12,0,0.63,0.14,-0.14,0.342,0.67,-0.227,4
1.57632E+12,0,-1.4,0.28,-1.26,0.351,0.67,-0.228,4
1.57632E+12,0,1.26,3.01,-2.73,0.341,0.673,-0.223,4
1.57632E+12,0,0.7,-1.19,-0.91,0.333,0.671,-0.229,4
1.57632E+12,0,0.63,0.07,-0.56,0.333,0.671,-0.228,4
1.57632E+12,0,0.77,0.35,-0.28,0.344,0.672,-0.225,4
1.57632E+12,0,1.54,0.42,0.63,0.34,0.671,-0.226,4
1.57632E+12,0,-0.35,0.28,-1.54,0.337,0.673,-0.222,4
1.57632E+12,0,0.63,0.35,0.14,0.333,0.671,-0.227,4
1.57632E+12,58,0.56,0.14,-0.07,0.336,0.67,-0.23,4
1.57632E+12,59,-1.89,-0.91,-0.49,0.305,0.662,-0.25,5
1.57632E+12,61,0.21,-0.21,-0.07,0.34,0.668,-0.235,4
1.57632E+12,62,20.79,11.48,17.64,0.321,0.689,-0.173,4
1.57632E+12,63,14.91,4.62,12.32,0.317,0.71,-0.089,7
1.57632E+12,63,-1.12,1.61,-2.59,0.335,0.727,0.033,14
1.57632E+12,63,-0.63,-0.07,-0.35,0.327,0.724,0.003,12
1.57632E+12,63,1.4,-1.26,-0.21,0.326,0.723,-0.005,11
1.57632E+12,63,0.49,-0.07,0.63,0.323,0.723,-0.011,11
1.57632E+12,63,1.12,-0.84,-0.7,0.335,0.723,-0.007,10
1.57632E+12,63,-0.35,-1.19,-0.84,0.344,0.723,-0.012,12
1.57632E+12,63,0.21,-0.21,-0.35,0.353,0.723,-0.016,14
1.57632E+12,63,0.14,-0.14,-0.28,0.349,0.722,-0.021,14
1.57632E+12,63,-0.28,-0.21,-0.14,0.348,0.722,-0.018,14
1.57632E+12,63,1.54,0.21,0.28,0.348,0.722,-0.022,13
1.57632E+12,63,-0.7,0.49,-1.05,0.344,0.722,-0.021,13
1.57632E+12,63,0.56,1.4,-0.14,0.342,0.721,-0.028,12
1.57632E+12,63,1.82,-0.7,0.7,0.378,0.73,0.052,15
1.57632E+12,63,-1.54,0.49,1.19,0.359,0.726,0.009,16
1.57632E+12,63,-1.54,0.42,-4.2,0.355,0.715,-0.056,12
1.57632E+12,63,-0.28,-0.63,0.28,0.35,0.715,-0.057,6
1.57632E+12,63,0.07,-0.28,-0.84,0.346,0.718,-0.042,9
1.57632E+12,63,-0.14,-0.07,-0.35,0.354,0.717,-0.05,12
1.57632E+12,63,0.77,0.28,-0.49,0.35,0.716,-0.054,11
1.57632E+12,63,0.07,-0.21,-0.7,0.347,0.716,-0.054,10
1.57632E+12,63,0.56,0.21,1.33,0.349,0.706,-0.1,5
1.57632E+12,63,1.89,4.2,5.95,0.342,0.723,0,12
1.57632E+12,63,-3.78,-6.3,12.74,0.347,0.732,0.071,14
1.57632E+12,63,43.61,-111.93,104.51,-0.378,0.776,-0.093,167
1.57632E+12,63,185.64,43.19,71.61,-0.534,0.698,0.19,41
1.57632E+12,63,-84.56,15.05,-6.93,-0.437,0.631,0.332,26
1.57632E+12,63,-88.2,-15.89,103.18,0.422,0.721,-0.192,34
1.57632E+12,63,2.45,2.87,-0.21,0.468,0.779,-0.019,31
1.57632E+12,0,22.96,-11.83,-5.18,0.456,0.775,0.017,23
1.57632E+12,0,5.74,14.42,14.21,0.54,0.747,-0.119,55
1.57632E+12,0,1.82,2.1,2.38,0.491,0.748,-0.057,31
1.57632E+12,0,-10.22,6.44,-18.62,0.482,0.741,-0.086,27
1.57632E+12,0,-9.45,-9.17,-2.73,0.255,0.727,-0.042,6
1.57632E+12,0,-3.64,-1.12,-0.98,0.252,0.718,-0.085,4
1.57632E+12,0,0.28,-0.21,-1.61,0.285,0.699,-0.159,5
1.57632E+12,0,2.73,1.82,1.47,0.285,0.7,-0.155,4
1.57632E+12,0,0.07,0.14,-0.35,0.274,0.701,-0.149,4
1.57632E+12,0,-0.56,-0.21,0.07,0.275,0.7,-0.154,4
1.57632E+12,0,0.56,-0.7,-0.91,0.279,0.7,-0.155,3
1.57632E+12,0,1.05,-0.07,-0.35,0.272,0.699,-0.157,3
1.57632E+12,0,12.04,-1.61,4.76,0.259,0.709,-0.12,4
1.57632E+12,0,1.61,1.26,-0.77,0.243,0.72,-0.08,5
1.57632E+12,0,-0.42,0.14,-1.75,0.273,0.724,-0.073,6
1.57632E+12,0,-0.49,0.84,0.14,0.275,0.717,-0.101,4
1.57632E+12,0,0.63,-0.21,-0.28,0.279,0.715,-0.106,4
1.57632E+12,0,-0.28,0.63,-0.63,0.274,0.711,-0.118,5
1.57632E+12,0,-5.11,-1.96,-0.84,0.288,0.705,-0.143,4
1.57632E+12,0,-0.42,0.21,0.07,0.279,0.703,-0.147,3
1.57632E+12,0,0.28,0.21,0.56,0.284,0.703,-0.149,3
1.57632E+12,0,1.4,0.07,-0.49,0.286,0.707,-0.137,4
1.57632E+12,0,-0.56,-1.33,0.14,0.282,0.71,-0.126,5
1.57632E+12,0,1.05,-0.56,0.42,0.286,0.71,-0.126,4
1.57632E+12,0,0.98,-0.28,-0.63,0.289,0.711,-0.126,4
1.57632E+12,0,0.21,0.77,-0.21,0.282,0.713,-0.117,4
1.57632E+12,0,0.42,-0.21,0.35,0.29,0.713,-0.12,6
1.57632E+12,72,-0.28,-0.42,-0.28,0.29,0.711,-0.126,5
1.57632E+12,73,0.35,-0.21,0.07,0.282,0.711,-0.123,6
1.57632E+12,74,0.7,1.19,0.49,0.291,0.713,-0.119,5
1.57632E+12,74,0.56,-0.63,-0.91,0.277,0.713,-0.115,4
1.57632E+12,74,14.07,-8.61,6.37,0.264,0.72,-0.085,4
1.57632E+12,74,-12.6,-6.65,1.33,0.238,0.717,-0.09,8
1.57632E+12,74,4.13,3.5,1.89,0.273,0.726,-0.06,6
1.57632E+12,74,-14.14,-13.93,8.47,0.319,0.735,-0.005,7
1.57632E+12,74,-0.98,-0.42,-1.26,0.263,0.729,-0.048,6
1.57632E+12,74,0.35,-0.35,-0.21,0.262,0.729,-0.049,6
1.57632E+12,74,1.26,0.77,0.35,0.265,0.729,-0.05,6
1.57632E+12,74,0.35,-0.35,-0.07,0.265,0.729,-0.051,6
1.57632E+12,74,0.28,0.28,-0.07,0.267,0.729,-0.049,6
1.57632E+12,74,16.38,0.07,-5.39,0.292,0.732,-0.037,8
1.57632E+12,74,-5.6,-14.21,-5.6,0.54,0.779,0.12,117
1.57632E+12,74,-16.31,-9.59,-8.68,0.314,0.743,0.002,15
1.57632E+12,74,-3.5,-0.98,-0.49,0.319,0.735,-0.033,13
1.57632E+12,74,-0.56,1.82,-0.28,0.318,0.731,-0.044,9
1.57632E+12,74,4.97,0.07,-6.79,0.316,0.724,-0.064,8
1.57632E+12,74,-1.54,8.61,11.48,0.265,0.729,-0.026,5
1.57632E+12,74,1.4,-1.12,-2.73,0.304,0.726,-0.062,8
1.57632E+12,74,-0.35,0.21,-0.56,0.296,0.726,-0.062,8
1.57632E+12,74,1.19,-0.91,-0.21,0.295,0.726,-0.064,9
1.57632E+12,74,-1.19,-1.61,-0.35,0.322,0.73,-0.053,8
1.57632E+12,74,2.66,-0.56,0.49,0.309,0.728,-0.058,8
1.57632E+12,74,-0.14,-0.35,-0.21,0.303,0.727,-0.062,8
1.57632E+12,74,0.21,0.7,0.07,0.308,0.727,-0.062,9
1.57632E+12,74,0.28,-0.21,-0.14,0.307,0.727,-0.06,9
1.57632E+12,74,-0.07,-0.42,-0.14,0.303,0.727,-0.063,9
1.57632E+12,74,0.07,0.21,0.14,0.303,0.726,-0.066,9
1.57632E+12,74,-0.07,0.28,-0.14,0.31,0.727,-0.063,9
1.57632E+12,74,0.21,0.63,-0.07,0.313,0.727,-0.063,9
1.57632E+12,74,-0.98,-7.21,-5.74,0.338,0.726,-0.064,10
1.57632E+12,0,0.56,-0.49,-1.47,0.318,0.723,-0.074,10
1.57632E+12,0,0.14,-0.21,0.35,0.319,0.724,-0.072,9
1.57632E+12,0,0.07,-0.35,0.07,0.318,0.724,-0.075,10
1.57632E+12,0,-0.07,-0.14,0.28,0.317,0.723,-0.075,9
1.57632E+12,0,0.42,0.21,-0.21,0.321,0.724,-0.074,9
1.57632E+12,0,-19.18,-3.71,-18.76,0.293,0.705,-0.132,9
1.57632E+12,0,13.79,-13.09,-1.82,0.289,0.724,-0.077,4
1.57632E+12,0,3.78,-2.38,2.8,0.259,0.705,-0.135,4
1.57632E+12,0,-4.48,7.49,17.92,-0.051,0.666,-0.143,1
1.57632E+12,0,2.8,-1.26,-6.3,-0.154,0.628,-0.202,1
1.57632E+12,0,-5.04,-3.71,2.17,0.036,0.675,-0.162,4
1.57632E+12,0,-0.07,0.28,-0.84,0.015,0.669,-0.173,3
1.57632E+12,0,-0.42,-0.07,-0.14,0.02,0.668,-0.176,3
1.57632E+12,0,0.77,-3.43,-8.4,0.04,0.671,-0.178,3
1.57632E+12,0,-52.01,-43.89,-15.82,0.455,0.702,-0.173,18
1.57632E+12,0,139.02,63,-161.28,0.431,0.681,-0.174,13
1.57632E+12,0,-2.24,-1.05,0.98,0.537,0.653,-0.28,13
1.57632E+12,0,23.66,0.98,9.94,0.483,0.675,-0.249,10
1.57632E+12,0,0.14,-0.28,0.63,0.498,0.702,-0.186,15
1.57632E+12,0,8.96,3.57,2.03,0.477,0.711,-0.156,16
1.57632E+12,0,-143.85,46.76,40.32,0.279,0.671,-0.229,14
1.57632E+12,0,-3.78,-0.28,-0.28,0.301,0.711,-0.102,6
1.57632E+12,0,-0.63,-0.14,-0.35,0.305,0.712,-0.097,6
1.57632E+12,0,2.1,3.08,-1.47,0.292,0.71,-0.1,7
1.57632E+12,0,-8.96,-14.56,-12.39,0.27,0.721,-0.048,9
1.57632E+12,0,-2.87,-3.92,1.68,0.344,0.717,-0.094,9
1.57632E+12,0,-0.14,0.7,0.21,0.339,0.719,-0.082,7
1.57632E+12,79,1.82,0.35,-1.47,0.338,0.717,-0.088,6
1.57632E+12,77,0.63,0.07,-0.21,0.343,0.718,-0.087,6
1.57632E+12,76,-0.42,0.42,0.14,0.342,0.716,-0.091,6
1.57632E+12,74,0.14,-0.56,0.21,0.342,0.717,-0.089,6
1.57632E+12,74,-1.33,-0.14,0.98,0.343,0.718,-0.087,6
1.57632E+12,74,0.42,-1.68,0.7,0.333,0.715,-0.093,6
1.57632E+12,74,0.21,0.63,-1.47,0.344,0.716,-0.093,6
1.57632E+12,74,-0.91,-0.07,-0.28,0.346,0.713,-0.104,7
1.57632E+12,74,0.07,0.35,0.21,0.344,0.714,-0.098,8
1.57632E+12,74,0.14,0.07,-0.14,0.345,0.714,-0.1,9
1.57632E+12,74,0.21,-0.49,-0.77,0.344,0.711,-0.109,9
1.57632E+12,74,0.42,1.26,-1.47,0.348,0.71,-0.111,9
1.57632E+12,74,0.07,1.75,1.47,0.348,0.704,-0.13,9
1.57632E+12,74,0.28,-0.63,0.35,0.343,0.706,-0.121,9
1.57632E+12,74,-0.49,1.05,-1.05,0.352,0.704,-0.125,9
1.57632E+12,74,-0.77,0.49,0.77,0.331,0.703,-0.126,7
1.57632E+12,74,25.13,17.64,11.41,0.276,0.715,-0.075,7
1.57632E+12,74,-1.4,-0.35,-7.35,0.349,0.695,-0.152,7
1.57632E+12,74,-0.7,5.74,4.83,0.36,0.686,-0.179,8
1.57632E+12,74,-1.75,-2.24,-0.56,0.276,0.702,-0.123,4
1.57632E+12,74,0.14,0.42,-0.35,0.286,0.699,-0.135,5
1.57632E+12,74,-0.35,-0.07,-0.14,0.291,0.699,-0.134,5
1.57632E+12,74,-0.35,-0.49,-0.07,0.291,0.698,-0.138,5
1.57632E+12,74,0.07,-0.14,0.14,0.292,0.699,-0.137,5
1.57632E+12,74,-82.04,-16.17,-16.24,0.458,0.495,-0.507,2
1.57632E+12,74,-1.68,-0.42,-0.49,0.376,0.437,-0.557,2
1.57632E+12,74,-0.35,-0.21,-0.07,0.368,0.43,-0.564,2
1.57632E+12,74,-0.77,-2.03,2.66,0.369,0.453,-0.544,2
1.57632E+12,74,0.49,0.56,-0.7,0.363,0.454,-0.543,2
1.57632E+12,74,10.99,-1.33,6.58,0.374,0.471,-0.528,2
1.57632E+12,74,85.54,39.41,38.78,0.404,0.62,-0.345,2
1.57632E+12,74,0.7,2.59,-3.57,0.33,0.691,-0.171,4
1.57632E+12,74,8.75,16.1,23.59,0.279,0.704,-0.124,6
1.57632E+12,0,1.68,-12.04,-10.22,0.215,0.712,-0.075,4
1.57632E+12,0,-2.24,-1.26,-0.35,0.256,0.72,-0.035,9
1.57632E+12,0,7.84,-0.07,11.62,0.268,0.711,-0.09,5
1.57632E+12,0,-23.66,-119.49,-204.05,0.348,0.692,-0.148,9
1.57632E+12,0,183.4,110.32,147.49,0.514,0.662,-0.228,19
1.57632E+12,0,0.77,1.68,-1.82,0.216,0.691,-0.159,4
1.57632E+12,0,-0.14,0.42,0.56,0.215,0.692,-0.156,4
1.57632E+12,0,0.14,0.07,0.14,0.223,0.692,-0.155,4
1.57632E+12,0,0.14,1.33,0.35,0.225,0.691,-0.158,4
1.57632E+12,0,-0.77,3.78,2.8,0.233,0.691,-0.158,4
1.57632E+12,0,-0.42,-0.98,-1.68,0.245,0.693,-0.153,4
1.57632E+12,0,-0.21,0.56,-0.84,0.246,0.691,-0.159,4
1.57632E+12,0,-2.87,2.52,-0.77,0.238,0.688,-0.171,4
1.57632E+12,0,-1.75,-6.51,-2.59,0.277,0.69,-0.163,4
1.57632E+12,0,-3.36,3.92,4.55,0.188,0.683,-0.184,4
1.57632E+12,0,0.63,0.21,-0.07,0.24,0.688,-0.169,4
1.57632E+12,0,0.14,0.35,-0.07,0.242,0.688,-0.168,4
1.57632E+12,0,0.91,2.59,-0.42,0.263,0.692,-0.154,5
1.57632E+12,0,0.35,-0.49,1.12,0.26,0.691,-0.16,4
1.57632E+12,0,1.05,0.49,-0.42,0.257,0.69,-0.163,5
1.57632E+12,0,0.07,1.54,1.05,0.266,0.69,-0.161,5
1.57632E+12,0,-0.42,-0.35,-0.7,0.263,0.688,-0.168,5
1.57632E+12,0,-0.07,0.42,0.98,0.259,0.687,-0.171,5
1.57632E+12,0,0.35,0.63,0.63,0.263,0.688,-0.168,5
1.57632E+12,71,0.63,0.63,0.49,0.268,0.688,-0.169,5
1.57632E+12,71,-0.14,0.56,0.21,0.269,0.687,-0.17,4
1.57632E+12,71,0.07,-0.14,1.82,0.271,0.688,-0.168,5
1.57632E+12,71,0.35,1.05,-0.07,0.273,0.688,-0.168,5
1.57632E+12,71,12.25,-3.15,-3.5,0.312,0.686,-0.171,5
1.57632E+12,70,22.33,2.59,-2.24,0.207,0.649,-0.284,3
1.57632E+12,70,0.14,-0.56,-0.21,0.241,0.666,-0.237,4
1.57632E+12,70,2.87,7.7,2.52,0.194,0.652,-0.279,4
1.57632E+12,70,1.82,-1.19,-2.94,0.209,0.666,-0.24,3
1.57632E+12,70,-3.92,-2.1,-0.42,0.261,0.666,-0.235,4
1.57632E+12,70,-4.55,2.17,1.61,0.238,0.661,-0.251,4
1.57632E+12,70,-24.01,14.35,-0.98,0.383,0.701,-0.104,11
1.57632E+12,70,7.98,-4.41,4.97,0.297,0.669,-0.221,5
1.57632E+12,70,0.84,-0.28,-2.66,0.293,0.675,-0.203,4
1.57632E+12,70,0.21,0.49,-0.56,0.299,0.674,-0.207,5
1.57632E+12,70,0.21,-0.28,0.35,0.294,0.673,-0.209,4
1.57632E+12,70,-0.07,0.35,0.21,0.297,0.674,-0.207,5
1.57632E+12,70,0.07,0.14,0.28,0.3,0.673,-0.208,5
1.57632E+12,70,0.28,0.07,-0.63,0.3,0.674,-0.206,5
1.57632E+12,70,-0.07,0.21,-0.14,0.299,0.674,-0.208,5
1.57632E+12,70,0.21,-0.07,-0.21,0.302,0.674,-0.206,4
1.57632E+12,70,-0.63,0.49,-1.68,0.299,0.674,-0.206,4
1.57632E+12,70,0.21,-0.42,0.14,0.306,0.672,-0.211,5
1.57632E+12,70,-0.56,0.49,-0.21,0.305,0.672,-0.211,5
1.57632E+12,70,0.21,0.42,-0.07,0.305,0.671,-0.215,4
1.57632E+12,70,0.7,-0.07,0.21,0.31,0.672,-0.211,4
1.57632E+12,70,-0.35,-0.42,-0.84,0.294,0.675,-0.203,4
1.57632E+12,70,-0.28,-0.21,-0.98,0.31,0.672,-0.21,4
1.57632E+12,70,1.26,1.33,0.7,0.307,0.668,-0.223,5
1.57632E+12,70,-0.42,0.49,-0.42,0.31,0.671,-0.213,5
1.57632E+12,70,-0.42,-0.84,-0.7,0.319,0.671,-0.214,5
1.57632E+12,70,-0.07,0.07,0.14,0.314,0.67,-0.215,5
1.57632E+12,70,-0.14,0.28,0.14,0.312,0.67,-0.217,4
1.57632E+12,70,4.41,48.02,11.9,0.253,0.687,-0.161,6
1.57632E+12,70,5.6,-0.77,0.77,0.294,0.677,-0.196,4
1.57632E+12,70,-2.17,1.68,5.39,0.362,0.707,-0.038,9
1.57632E+12,0,-0.56,0.07,0.07,0.294,0.701,-0.094,6
1.57632E+12,0,-0.98,0.84,-0.07,0.291,0.697,-0.114,5
1.57632E+12,0,-0.7,1.47,1.47,0.309,0.694,-0.126,8
1.57632E+12,0,0.07,-0.14,0.42,0.299,0.693,-0.13,8
1.57632E+12,0,-0.14,-0.56,0.21,0.301,0.693,-0.13,8
1.57632E+12,0,-0.14,0.77,0.07,0.314,0.693,-0.128,7
1.57632E+12,0,-0.07,-0.49,-0.14,0.309,0.692,-0.136,7
1.57632E+12,0,-0.28,-1.4,0.07,0.314,0.692,-0.132,8
1.57632E+12,0,-0.21,0.21,-0.07,0.313,0.691,-0.139,7
1.57632E+12,0,1.26,1.68,1.33,0.316,0.691,-0.14,7
1.57632E+12,0,-0.63,-0.28,-0.63,0.309,0.69,-0.145,8
1.57632E+12,0,0.21,0.28,-0.28,0.323,0.69,-0.14,7
1.57632E+12,0,-1.96,-0.56,1.47,0.31,0.691,-0.139,5
1.57632E+12,0,0.21,0.56,0.56,0.305,0.691,-0.142,6
1.57632E+12,0,0.07,-0.21,-0.21,0.299,0.69,-0.148,6
1.57632E+12,0,-2.1,0.49,-0.49,0.298,0.689,-0.152,5
1.57632E+12,0,0.28,2.38,-1.82,0.389,0.696,-0.092,12
1.57632E+12,68,-0.98,-4.06,2.1,0.339,0.685,-0.16,9
1.57632E+12,68,-0.14,0.77,1.12,0.365,0.686,-0.152,11
1.57632E+12,68,1.4,2.31,-1.47,0.363,0.684,-0.157,10
1.57632E+12,67,-4.76,-4.06,1.26,0.362,0.687,-0.152,9
1.57632E+12,66,-4.27,6.58,1.33,0.353,0.685,-0.157,7
1.57632E+12,67,4.97,3.43,-3.29,0.37,0.683,-0.161,9
1.57632E+12,66,0.42,0.28,0.35,0.361,0.685,-0.155,9
1.57632E+12,65,0.91,-0.35,-0.21,0.36,0.685,-0.154,9
1.57632E+12,64,-0.07,-0.07,-0.14,0.366,0.683,-0.158,9
1.57632E+12,64,-0.49,2.03,-5.46,0.362,0.684,-0.154,6
1.57632E+12,64,2.59,2.03,2.45,0.38,0.676,-0.182,9
1.57632E+12,65,-3.43,-1.82,2.31,0.355,0.681,-0.161,9
1.57632E+12,66,1.4,3.71,8.12,0.356,0.683,-0.16,8
1.57632E+12,67,4.62,-3.43,-5.18,0.306,0.677,-0.191,5
1.57632E+12,66,4.13,2.1,-7.35,0.336,0.672,-0.203,5
1.57632E+12,66,-0.14,3.01,3.43,0.36,0.683,-0.157,6
1.57632E+12,66,3.36,-1.4,-0.28,0.326,0.684,-0.161,6
1.57632E+12,66,-3.57,0.56,0.7,0.339,0.68,-0.178,7
1.57632E+12,66,2.31,1.19,-4.27,0.312,0.672,-0.208,5
1.57632E+12,66,0.91,0.42,-0.21,0.323,0.67,-0.211,6
1.57632E+12,66,0.35,-0.28,-0.14,0.326,0.67,-0.21,6
1.57632E+12,66,4.97,0.28,3.85,0.338,0.677,-0.185,6
1.57632E+12,66,-0.14,-5.74,-3.57,0.356,0.687,-0.148,5
1.57632E+12,66,1.12,3.22,-0.14,0.357,0.686,-0.151,8
1.57632E+12,66,-0.07,-0.21,0.84,0.339,0.68,-0.173,7
1.57632E+12,66,1.26,0.49,-1.33,0.345,0.683,-0.161,8
1.57632E+12,66,-0.56,0.77,-0.35,0.344,0.681,-0.17,8
1.57632E+12,66,0.98,0.84,1.12,0.348,0.68,-0.172,8
1.57632E+12,66,-0.42,0.35,0.21,0.335,0.681,-0.174,7
1.57632E+12,66,0.91,0.21,-0.77,0.34,0.68,-0.173,7
1.57632E+12,66,-1.75,-0.07,1.82,0.338,0.683,-0.163,9
1.57632E+12,66,-0.56,-0.21,0.49,0.347,0.683,-0.16,9
1.57632E+12,66,-0.21,2.17,3.43,0.345,0.681,-0.168,9
1.57632E+12,66,4.48,0.63,1.82,0.347,0.684,-0.156,9
1.57632E+12,66,-1.54,0.28,-0.28,0.353,0.681,-0.168,8
1.57632E+12,66,0.63,1.26,0.49,0.349,0.68,-0.174,7
1.57632E+12,66,-0.28,0.07,0.14,0.342,0.679,-0.177,7
1.57632E+12,66,0.14,-0.07,-0.28,0.348,0.68,-0.174,8
1.57632E+12,66,12.6,-21.77,-6.58,0.352,0.686,-0.149,9
1.57632E+12,66,81.76,-26.04,10.22,0.576,0.679,-0.126,43
1.57632E+12,66,6.79,-7.63,7.77,0.545,0.673,0.18,56
1.57632E+12,66,0.91,-3.71,2.03,0.608,0.676,-0.05,58
1.57632E+12,66,-4.34,0.63,0.84,0.618,0.676,-0.067,39
1.57632E+12,0,0.63,0.28,-1.89,0.604,0.678,-0.066,53
1.57632E+12,0,7.98,13.37,-15.68,0.585,0.668,-0.086,42
1.57632E+12,0,-7.35,-0.49,-2.8,0.56,0.651,-0.193,17
1.57632E+12,0,3.29,3.57,-2.31,0.555,0.649,-0.197,20
1.57632E+12,0,0.49,-7.63,4.2,0.557,0.644,-0.215,23
1.57632E+12,0,1.12,-2.66,-1.12,0.551,0.647,-0.211,20
1.57632E+12,0,0.14,-0.28,0.07,0.55,0.646,-0.213,19
1.57632E+12,0,-0.84,-2.1,-3.92,0.552,0.643,-0.221,18
1.57632E+12,0,-6.65,0.35,-5.67,0.548,0.644,-0.217,21
1.57632E+12,0,-0.21,-11.06,8.4,0.555,0.646,-0.21,18
1.57632E+12,0,6.3,-8.61,0.49,0.529,0.65,-0.217,14
1.57632E+12,0,5.67,9.1,-4.41,0.548,0.645,-0.22,11
1.57632E+12,0,2.59,6.79,-7.91,0.546,0.647,-0.212,11
1.57632E+12,0,20.93,6.86,5.88,0.54,0.671,-0.143,23
1.57632E+12,0,67.69,-41.72,-6.37,0.725,0.652,-0.064,117
1.57632E+12,0,-8.82,-4.13,4.62,0.785,0.609,-0.082,164
1.57632E+12,0,-55.86,-6.72,2.1,0.64,0.507,-0.445,38
1.57632E+12,0,10.43,3.22,2.87,0.679,0.526,-0.4,29
1.57632E+12,0,-2.45,-0.42,-0.98,0.671,0.516,-0.417,30
1.57632E+12,0,0.35,0.14,-0.28,0.671,0.512,-0.422,30
1.57632E+12,0,0.42,-0.07,-0.07,0.673,0.511,-0.422,30
1.57632E+12,0,4.13,0.42,-0.28,0.677,0.515,-0.414,30
1.57632E+12,76,2.66,2.1,-3.57,0.724,0.552,-0.321,19
1.57632E+12,75,1.61,0.42,0.28,0.717,0.548,-0.331,18
1.57632E+12,75,-2.45,-0.91,-0.14,0.708,0.541,-0.351,18
1.57632E+12,75,-4.41,-0.98,-0.49,0.704,0.535,-0.364,29
1.57632E+12,75,1.12,0.21,-0.49,0.71,0.54,-0.351,46
1.57632E+12,74,0.35,-0.21,-0.84,0.708,0.538,-0.356,51
1.57632E+12,74,14.91,3.43,3.36,0.717,0.551,-0.323,36
1.57632E+12,73,-1.4,-0.49,-0.56,0.716,0.548,-0.33,61
1.57632E+12,73,0.98,0.35,0.07,0.713,0.544,-0.341,59
1.57632E+12,74,-0.35,-0.07,-0.07,0.712,0.544,-0.341,58
1.57632E+12,74,-0.56,0.07,0.07,0.712,0.542,-0.344,58
1.57632E+12,74,0.7,0.35,0.07,0.713,0.543,-0.341,60
1.57632E+12,74,0.35,-0.21,-0.28,0.715,0.544,-0.338,59
1.57632E+12,74,-2.52,-0.14,-0.07,0.713,0.54,-0.347,58
1.57632E+12,74,-0.35,-1.33,-0.84,0.725,0.546,-0.326,24
1.57632E+12,74,-28.49,-6.44,-1.96,0.71,0.539,-0.349,52
1.57632E+12,74,16.45,2.45,6.37,-0.62,0.466,0.502,17
1.57632E+12,74,20.23,-3.85,-13.3,0.69,0.523,-0.381,43
1.57632E+12,74,1.26,1.33,-0.63,0.677,0.495,-0.435,28
1.57632E+12,74,1.54,0.91,1.61,0.684,0.501,-0.421,30
1.57632E+12,74,1.82,0.7,0.49,0.689,0.505,-0.414,32
1.57632E+12,74,19.04,2.17,-2.31,0.708,0.521,-0.376,22
1.57632E+12,74,2.59,7.28,-4.97,0.704,0.543,-0.339,40
1.57632E+12,74,1.61,0.56,-0.35,0.697,0.505,-0.404,37
1.57632E+12,74,-0.56,0.63,0.98,0.69,0.499,-0.418,36
1.57632E+12,74,-4.48,-2.03,-0.42,0.7,0.507,-0.398,38
1.57632E+12,74,-4.27,-0.56,-1.75,0.702,0.506,-0.398,38
1.57632E+12,74,3.08,2.59,1.33,0.705,0.505,-0.397,39
1.57632E+12,74,-4.2,-0.14,-0.77,0.7,0.5,-0.408,36
1.57632E+12,74,0.28,-0.21,-2.52,0.698,0.504,-0.404,35
1.57632E+12,74,3.78,0.42,-0.63,0.703,0.504,-0.4,35
1.57632E+12,74,2.73,0.91,-0.21,0.706,0.51,-0.388,40
1.57632E+12,74,-4.34,-1.68,-1.12,0.704,0.504,-0.399,40
1.57632E+12,74,-8.12,-5.25,-1.68,0.7,0.496,-0.413,38
1.57632E+12,74,13.3,4.06,2.87,0.707,0.508,-0.389,37
1.57632E+12,74,5.95,1.33,0.98,0.702,0.505,-0.398,40
1.57632E+12,74,1.61,0.91,-0.49,0.709,0.509,-0.387,38
1.57632E+12,74,-2.1,0.56,0.84,0.71,0.508,-0.386,39
1.57632E+12,0,2.66,1.05,0.77,0.705,0.504,-0.395,40
1.57632E+12,0,-2.03,-0.84,-0.63,0.711,0.507,-0.387,42
1.57632E+12,0,-0.91,-0.77,-0.28,0.71,0.504,-0.392,41
1.57632E+12,0,0.35,0.77,-0.7,0.71,0.504,-0.392,40
1.57632E+12,0,1.05,-0.07,0.77,0.714,0.507,-0.383,43
1.57632E+12,0,0.91,-0.98,-2.03,0.712,0.507,-0.386,43
1.57632E+12,0,-1.89,-0.56,-0.14,0.713,0.504,-0.389,43
1.57632E+12,0,-6.23,-0.49,-0.77,0.715,0.509,-0.378,45
1.57632E+12,0,3.29,0.63,-0.07,0.714,0.507,-0.384,45
1.57632E+12,0,-0.21,0.07,-0.21,0.714,0.508,-0.381,44
1.57632E+12,0,-1.82,-1.19,0.28,0.71,0.502,-0.393,39
1.57632E+12,75,1.33,-0.14,-0.84,0.705,0.497,-0.406,30
1.57632E+12,75,-1.19,-0.35,-0.77,0.708,0.503,-0.395,40
1.57632E+12,75,0.91,0.14,0.21,0.709,0.502,-0.395,33
1.57632E+12,75,2.17,0.42,-0.07,0.71,0.503,-0.393,35
1.57632E+12,74,-1.82,-0.42,-0.49,0.713,0.506,-0.386,40
1.57632E+12,74,-0.56,-0.35,-0.98,0.715,0.507,-0.383,40
1.57632E+12,73,-3.08,0.49,-2.17,0.716,0.504,-0.387,41
1.57632E+12,74,-0.28,0.49,-0.28,0.71,0.502,-0.393,37
1.57632E+12,73,-0.84,0.49,-1.4,0.713,0.498,-0.397,40
1.57632E+12,74,0.14,0.35,-0.35,0.716,0.503,-0.384,45
1.57632E+12,73,0.28,0.35,-0.35,0.718,0.506,-0.378,45
1.57632E+12,72,3.01,0.42,0.28,0.717,0.502,-0.385,42
1.57632E+12,71,1.89,0.91,0.28,0.719,0.507,-0.376,46
1.57632E+12,71,-6.23,0.91,-0.14,0.714,0.505,-0.383,44
1.57632E+12,71,15.47,1.19,4.76,0.708,0.498,-0.399,36
1.57632E+12,70,-8.26,-1.75,1.4,0.698,0.48,-0.432,29
1.57632E+12,71,0.7,1.19,1.05,0.703,0.49,-0.414,35
1.57632E+12,71,0.49,-0.84,-0.21,0.695,0.484,-0.428,31
1.57632E+12,72,4.13,1.61,1.19,0.698,0.486,-0.422,23
1.57632E+12,72,2.59,0.21,-0.35,0.7,0.483,-0.426,35
1.57632E+12,72,3.78,1.05,-0.49,0.703,0.483,-0.422,35
1.57632E+12,72,-0.07,1.19,0.56,0.707,0.485,-0.416,36
1.57632E+12,72,5.32,0.07,1.05,0.702,0.483,-0.423,35
1.57632E+12,72,-0.98,-0.28,-0.35,0.703,0.482,-0.424,34
1.57632E+12,72,-1.33,-0.49,-0.35,0.701,0.482,-0.425,32
1.57632E+12,72,3.08,1.12,2.24,0.701,0.485,-0.42,32
1.57632E+12,72,-0.91,0.63,1.33,0.711,0.489,-0.407,34
1.57632E+12,72,2.73,0.77,0.42,0.707,0.49,-0.409,34
1.57632E+12,72,1.54,0.49,1.75,0.709,0.488,-0.412,24
1.57632E+12,72,-2.59,-1.19,-1.68,0.702,0.482,-0.424,32
1.57632E+12,72,1.4,0.28,0.14,0.705,0.484,-0.419,34
1.57632E+12,72,-3.36,-4.2,-6.58,0.686,0.46,-0.466,29
1.57632E+12,72,-3.15,-0.91,-0.7,0.694,0.465,-0.453,28
1.57632E+12,72,-3.15,-0.56,-0.35,0.701,0.477,-0.431,23
1.57632E+12,72,-13.44,-6.51,-9.8,0.678,0.465,-0.465,29
1.57632E+12,72,-0.07,0.77,-1.4,0.697,0.467,-0.449,32
1.57632E+12,72,3.5,2.52,1.33,0.705,0.481,-0.422,32
1.57632E+12,72,-4.9,-0.49,-1.68,0.697,0.468,-0.446,31
1.57632E+12,72,-6.58,-1.26,1.82,0.696,0.473,-0.44,31
1.57632E+12,72,1.47,-1.33,-3.22,0.703,0.482,-0.422,30
1.57632E+12,72,-2.45,-1.33,-1.54,0.708,0.479,-0.424,33
1.57632E+12,72,1.12,-0.14,-0.21,0.704,0.477,-0.429,33
1.57632E+12,72,-18.76,-5.88,-6.44,0.703,0.476,-0.431,32
1.57632E+12,72,2.8,3.36,2.1,0.71,0.487,-0.408,33
1.57632E+12,72,4.27,1.05,1.12,0.71,0.479,-0.421,33
1.57632E+12,72,0.21,0.42,0.21,0.714,0.484,-0.41,35
1.57632E+12,72,0.49,-0.98,0.07,0.707,0.471,-0.434,33
1.57632E+12,72,4.2,1.96,0.63,0.713,0.48,-0.416,36
1.57632E+12,72,1.89,-0.14,0.21,0.72,0.485,-0.403,38
1.57632E+12,0,-6.02,-0.91,-0.63,0.718,0.479,-0.414,37
1.57632E+12,0,-1.4,0.49,-2.31,0.712,0.49,-0.402,37
1.57632E+12,0,0.21,-0.21,-0.42,0.727,0.491,-0.387,39
1.57632E+12,0,-0.07,0.42,-0.07,0.727,0.494,-0.382,42
1.57632E+12,0,-0.28,0.21,-0.56,0.726,0.491,-0.387,42
1.57632E+12,0,0.63,0.28,0.07,0.729,0.494,-0.381,44
1.57632E+12,0,0.77,0.42,0.49,0.724,0.487,-0.395,42
1.57632E+12,0,-0.14,0.63,-0.35,0.728,0.491,-0.385,42
1.57632E+12,0,-2.52,-1.47,-1.4,0.718,0.484,-0.406,38
1.57632E+12,0,-2.73,-1.96,0.14,0.716,0.481,-0.411,37
1.57632E+12,0,0.49,-0.28,-0.07,0.718,0.485,-0.404,34
1.57632E+12,0,-0.14,0.07,0.14,0.72,0.485,-0.402,26
1.57632E+12,74,-1.82,-0.49,-0.7,0.717,0.482,-0.409,29
1.57632E+12,74,0.28,0.07,0.21,0.718,0.483,-0.407,28
1.57632E+12,74,-8.61,-1.47,-0.63,0.715,0.477,-0.418,28
1.57632E+12,73,-7.21,-3.08,-0.42,0.713,0.48,-0.415,33
1.57632E+12,73,7.98,-10.29,-13.16,-0.691,0.437,0.486,28
1.57632E+12,74,18.06,1.96,1.75,0.6,0.438,-0.54,14
1.57632E+12,74,-2.52,-0.35,-0.63,-0.63,0.438,0.525,14
1.57632E+12,74,16.03,-7.21,6.09,-0.646,0.46,0.495,14
1.57632E+12,75,-11.41,-2.24,6.02,-0.622,0.439,0.528,22
1.57632E+12,75,1.33,0.14,-0.07,-0.624,0.445,0.521,21
1.57632E+12,75,0.21,-0.35,-0.35,-0.626,0.448,0.516,22
1.57632E+12,76,0.77,0.07,-0.07,-0.626,0.448,0.516,22
1.57632E+12,77,0.07,-0.63,-0.84,-0.624,0.452,0.512,22
1.57632E+12,77,-0.07,0.84,-0.7,-0.633,0.45,0.511,23
1.57632E+12,77,0.56,-0.21,-0.14,-0.631,0.452,0.509,23
1.57632E+12,77,-0.56,-0.35,0.14,-0.631,0.451,0.511,24
1.57632E+12,77,1.82,0.7,-0.56,-0.635,0.451,0.509,23
1.57632E+12,76,-0.14,0.42,0.07,-0.631,0.448,0.514,25
1.57632E+12,75,0.14,0.07,-0.49,-0.632,0.449,0.512,24
1.57632E+12,76,-0.28,0.28,0.84,-0.629,0.444,0.52,24
1.57632E+12,76,0.14,-0.14,2.03,-0.627,0.44,0.525,27
1.57632E+12,76,-3.15,-0.63,0.77,-0.623,0.445,0.52,25
1.57632E+12,76,-0.07,-0.35,0.21,-0.617,0.438,0.531,24
1.57632E+12,76,-0.42,-0.35,0.21,-0.616,0.436,0.533,24
1.57632E+12,76,-0.21,-0.35,-0.07,-0.615,0.436,0.534,24
1.57632E+12,76,0.28,-0.28,-0.35,-0.617,0.438,0.53,24
1.57632E+12,76,0.21,-0.14,0.07,-0.617,0.436,0.532,24
1.57632E+12,76,-0.7,-0.28,-0.14,-0.616,0.436,0.533,23
1.57632E+12,76,-0.07,-0.63,-0.63,-0.618,0.439,0.529,24
1.57632E+12,76,-0.14,-0.14,-0.21,-0.618,0.437,0.531,24
1.57632E+12,76,0.21,0.14,0.7,-0.618,0.437,0.531,25
1.57632E+12,76,0.56,-0.28,-0.56,-0.615,0.437,0.533,24
1.57632E+12,76,-5.25,-1.68,0.49,-0.621,0.434,0.533,23
1.57632E+12,76,1.4,0.14,-0.91,-0.607,0.43,0.544,19
1.57632E+12,76,-0.07,0.07,-0.84,-0.607,0.429,0.544,22
1.57632E+12,76,-7.28,1.68,2.87,-0.605,0.424,0.55,22
1.57632E+12,76,0.77,0.42,0.98,-0.607,0.431,0.542,21
1.57632E+12,76,22.89,-2.66,-2.17,-0.607,0.431,0.543,21
1.57632E+12,76,-1.26,-3.08,-1.54,0.74,0.481,-0.39,3
1.57632E+12,76,-2.73,-1.68,0.28,0.723,0.476,-0.412,5
1.57632E+12,76,-0.07,-0.28,0.21,0.731,0.483,-0.396,9
1.57632E+12,76,4.34,0.07,1.26,0.734,0.487,-0.386,7
1.57632E+12,76,-1.82,-0.07,-1.12,0.736,0.485,-0.388,5
1.57632E+12,76,3.01,2.31,1.75,0.738,0.481,-0.393,7
1.57632E+12,76,-1.19,0.42,2.94,0.729,0.483,-0.397,6
1.57632E+12,76,1.19,0.91,0.49,0.739,0.487,-0.381,7
1.57632E+12,76,1.75,0.56,-0.28,0.74,0.489,-0.376,6
1.57632E+12,76,-4.27,0.07,0.63,0.738,0.488,-0.381,7
1.57632E+12,0,-3.08,-1.54,-0.28,0.741,0.493,-0.369,5
1.57632E+12,0,-49.21,-9.24,1.61,0.703,0.466,-0.442,16
1.57632E+12,0,-9.17,-5.04,-3.43,0.712,0.462,-0.442,12
1.57632E+12,0,-5.88,-1.12,3.22,0.7,0.461,-0.451,14
1.57632E+12,0,0.7,0.21,-0.21,0.725,0.481,-0.403,29
1.57632E+12,0,-4.06,-0.98,-2.52,0.725,0.477,-0.41,34
1.57632E+12,0,-5.74,0.84,2.38,0.735,0.49,-0.381,41
1.57632E+12,0,5.95,-0.91,0.91,0.714,0.476,-0.417,33
1.57632E+12,0,6.37,-0.56,1.4,0.721,0.476,-0.413,35
1.57632E+12,0,0.98,-0.14,-0.77,0.713,0.467,-0.431,33
1.57632E+12,0,-3.71,-0.14,0.35,0.708,0.466,-0.436,33
1.57632E+12,0,3.64,0.63,0.77,0.709,0.469,-0.431,29
1.57632E+12,0,3.92,0.42,-0.77,0.722,0.477,-0.41,34
1.57632E+12,0,-4.55,1.4,-7.49,0.73,0.477,-0.406,29
1.57632E+12,76,17.08,6.86,10.57,-0.694,0.438,0.476,12
1.57632E+12,76,0.63,-0.7,-0.49,-0.718,0.452,0.444,12
1.57632E+12,76,19.81,18.27,28.49,0.721,0.462,-0.431,11
1.57632E+12,75,2.17,3.15,-15.61,0.72,0.481,-0.406,42
1.57632E+12,75,14.84,2.66,4.69,0.746,0.503,-0.346,54
1.57632E+12,75,-26.88,-11.27,-13.58,0.801,0.534,-0.219,118
1.57632E+12,76,-6.3,-1.05,2.66,0.779,0.52,-0.281,120
1.57632E+12,77,24.57,-3.36,6.02,0.753,0.527,-0.304,48
1.57632E+12,77,2.03,1.47,5.95,0.773,0.552,-0.226,113
1.57632E+12,77,-0.63,-22.82,95.55,0.666,0.674,0.014,93
1.57632E+12,77,17.92,21.77,5.67,0.579,0.666,-0.152,38
1.57632E+12,77,-1.4,1.12,0.63,0.596,0.67,-0.116,24
1.57632E+12,77,-3.22,0.7,0.63,0.591,0.67,-0.123,24
1.57632E+12,77,-2.94,0.49,0.63,0.613,0.668,-0.118,37
1.57632E+12,77,3.08,-1.96,-1.75,0.617,0.673,-0.103,35
1.57632E+12,76,-16.94,-0.77,-0.56,0.621,0.671,-0.105,37
1.57632E+12,76,0.28,0.14,0.7,0.605,0.669,-0.123,29
1.57632E+12,76,0.14,1.26,0.77,0.604,0.67,-0.121,30
1.57632E+12,76,-0.14,-0.35,-0.07,0.6,0.67,-0.12,30
1.57632E+12,76,0.28,0.14,0.14,0.603,0.67,-0.122,31
1.57632E+12,76,-0.21,0.14,-0.14,0.601,0.671,-0.117,30
1.57632E+12,76,-4.97,-0.35,-0.98,0.599,0.67,-0.123,30
1.57632E+12,76,0.49,-0.14,-0.42,0.6,0.671,-0.118,29
1.57632E+12,76,0.77,-0.07,0.21,0.603,0.671,-0.119,29
1.57632E+12,76,-3.5,-0.14,-1.61,0.602,0.67,-0.118,30
1.57632E+12,76,-12.11,-4.69,-19.46,0.572,0.628,-0.257,7
1.57632E+12,76,-0.21,-0.56,11.41,0.587,0.623,-0.256,5
1.57632E+12,76,1.54,0.77,1.75,0.569,0.627,-0.261,5
1.57632E+12,76,87.92,-34.09,-7.7,0.569,0.589,-0.34,3
1.57632E+12,76,12.74,-3.78,0.14,0.155,0.601,-0.345,14
1.57632E+12,76,-7.07,2.52,-9.52,0.203,0.589,-0.378,10
1.57632E+12,76,2.38,1.12,-1.61,0.231,0.534,-0.46,14
1.57632E+12,76,0.42,0.35,-0.14,0.236,0.526,-0.472,13
1.57632E+12,76,0.35,0.63,-0.28,0.241,0.527,-0.471,13
1.57632E+12,76,32.34,23.31,-4.97,0.264,0.502,-0.508,9
1.57632E+12,76,-34.3,-3.01,2.17,0.523,0.57,-0.392,5
1.57632E+12,76,-11.48,-2.59,2.52,0.401,0.522,-0.489,3
1.57632E+12,76,37.1,-22.26,8.96,0.279,0.504,-0.492,26
1.57632E+12,76,-6.02,-2.45,-0.21,0.239,0.543,-0.451,32
1.57632E+12,76,6.44,6.51,-2.94,0.247,0.541,-0.454,32
1.57632E+12,76,103.95,140.98,49.42,0.438,0.626,-0.286,5
1.57632E+12,76,-8.61,-3.57,1.75,0.428,0.643,-0.244,5
1.57632E+12,76,0.84,0.42,-1.4,0.408,0.627,-0.3,4
1.57632E+12,76,-0.21,-0.42,-0.07,0.409,0.626,-0.301,4
1.57632E+12,76,-0.07,-0.07,0.28,0.401,0.627,-0.303,4
1.57632E+12,76,0.21,-0.07,-0.35,0.411,0.626,-0.3,4
1.57632E+12,0,0.21,-0.14,-0.28,0.412,0.627,-0.299,4
1.57632E+12,0,-1.75,0.35,1.05,0.41,0.627,-0.301,4
1.57632E+12,0,0.49,-1.26,1.61,0.417,0.628,-0.296,4
1.57632E+12,0,-0.28,-0.77,-0.14,0.408,0.628,-0.298,4
1.57632E+12,0,-3.85,1.33,2.1,0.401,0.627,-0.304,4
1.57632E+12,0,-0.35,0.21,0.49,0.4,0.628,-0.302,4
1.57632E+12,0,0.14,-0.49,0.98,0.404,0.63,-0.294,4
1.57632E+12,0,-1.19,0.84,1.19,0.399,0.628,-0.302,4
1.57632E+12,0,0.21,-0.07,-0.07,0.397,0.629,-0.301,4
1.57632E+12,0,-0.63,-0.14,-0.28,0.404,0.629,-0.297,4
1.57632E+12,0,0.42,-0.56,-0.07,0.399,0.632,-0.293,4
1.57632E+12,0,-0.49,1.47,0.49,0.396,0.632,-0.293,4
1.57632E+12,0,15.54,9.17,6.44,0.386,0.653,-0.238,4
1.57632E+12,69,-17.64,20.58,-18.27,0.366,0.687,-0.105,12
1.57632E+12,69,-1.68,0.21,1.4,0.392,0.673,-0.156,7
1.57632E+12,70,0.35,-3.29,3.71,0.378,0.674,-0.161,4
1.57632E+12,72,-1.12,-0.35,0.7,0.379,0.673,-0.164,4
1.57632E+12,73,-0.56,-0.21,0.77,0.379,0.673,-0.165,5
1.57632E+12,73,-1.96,-1.19,-1.82,0.381,0.675,-0.155,4
1.57632E+12,72,15.96,-0.63,0.07,0.358,0.674,-0.169,6
1.57632E+12,72,-0.56,-0.21,-0.14,0.365,0.675,-0.165,6
1.57632E+12,72,0.49,0.91,1.05,0.352,0.674,-0.172,5
1.57632E+12,73,4.9,-1.19,1.89,0.37,0.673,-0.171,7
1.57632E+12,73,11.13,1.54,-2.1,0.321,0.673,-0.19,5
1.57632E+12,74,-2.66,2.1,-0.28,0.335,0.672,-0.189,5
1.57632E+12,75,-4.06,-1.12,1.05,0.331,0.672,-0.19,5
1.57632E+12,75,-0.49,0.21,-0.14,0.332,0.673,-0.187,4
1.57632E+12,75,1.82,-1.61,-0.28,0.333,0.675,-0.179,4
1.57632E+12,75,7.42,-4.62,3.71,0.326,0.686,-0.122,4
1.57632E+12,75,-0.21,-0.42,1.75,0.344,0.674,-0.18,5
1.57632E+12,75,-5.11,0.28,2.31,0.338,0.681,-0.149,5
1.57632E+12,75,-0.14,-0.21,-0.07,0.333,0.677,-0.173,4
1.57632E+12,75,-0.98,-0.77,-0.28,0.326,0.676,-0.18,5
1.57632E+12,75,0.14,0.07,0.21,0.333,0.678,-0.168,4
1.57632E+12,75,0.21,-0.07,0.35,0.328,0.679,-0.167,5
1.57632E+12,75,-0.14,0.14,-0.07,0.334,0.679,-0.164,4
1.57632E+12,75,0.07,0.35,0.21,0.331,0.678,-0.169,5
1.57632E+12,75,-0.07,-0.28,0.07,0.331,0.678,-0.169,4
1.57632E+12,75,0.21,-0.14,-0.21,0.328,0.678,-0.168,4
1.57632E+12,75,0.42,0.07,0.14,0.333,0.678,-0.168,5
1.57632E+12,75,-0.14,0.63,0.07,0.329,0.678,-0.169,4
1.57632E+12,75,0.28,-0.07,-0.07,0.33,0.678,-0.169,4
1.57632E+12,75,-2.59,-1.4,-0.28,0.338,0.674,-0.186,4
1.57632E+12,75,-0.14,0.07,-0.49,0.332,0.678,-0.169,4
1.57632E+12,75,-2.59,-1.47,0.84,0.334,0.678,-0.168,4
1.57632E+12,75,-0.07,-0.14,-0.14,0.331,0.675,-0.181,4
1.57632E+12,75,0.56,-0.35,0.28,0.32,0.68,-0.163,4
1.57632E+12,75,0.07,-0.7,-0.56,0.332,0.678,-0.165,4
1.57632E+12,75,2.1,-0.28,-0.07,0.321,0.681,-0.158,4
1.57632E+12,75,0.98,-0.21,-1.12,0.324,0.678,-0.172,4
1.57632E+12,75,-0.49,-0.7,-0.35,0.329,0.68,-0.161,5
1.57632E+12,75,0.91,0.7,0.14,0.326,0.679,-0.166,5
1.57632E+12,75,-0.21,-0.91,-1.4,0.329,0.678,-0.168,4
1.57632E+12,75,0.7,0.28,0.28,0.333,0.678,-0.167,5
1.57632E+12,75,-0.07,2.45,0.28,0.332,0.678,-0.163,4
1.57632E+12,75,11.48,-2.38,-6.16,0.328,0.671,-0.193,5
1.57632E+12,75,-26.6,21.28,-16.31,0.352,0.669,-0.188,5
1.57632E+12,75,-31.29,-2.03,-11.27,0.228,0.611,-0.388,3
1.57632E+12,75,-1.96,3.15,0.56,0.37,0.657,-0.233,4
1.57632E+12,75,1.82,-6.44,-0.56,0.319,0.649,-0.27,2
1.57632E+12,0,-0.63,0.28,0.21,0.31,0.649,-0.272,3
1.57632E+12,0,-0.98,-1.05,-2.17,0.335,0.658,-0.232,3
1.57632E+12,0,50.33,-61.81,-6.65,0.601,0.665,-0.037,9
1.57632E+12,0,-7.84,-9.45,4.48,0.703,0.647,0.009,62
1.57632E+12,0,-20.79,2.87,-8.96,0.635,0.66,0.029,15
1.57632E+12,0,-1.68,3.08,3.78,0.62,0.66,-0.053,45
1.57632E+12,0,1.05,-0.98,-2.24,0.625,0.658,-0.069,4
1.57632E+12,0,-3.99,0.77,1.82,0.619,0.659,-0.06,3
1.57632E+12,0,0.35,-0.35,-0.42,0.617,0.659,-0.065,3
1.57632E+12,0,-0.84,0.14,0.21,0.617,0.659,-0.063,3
1.57632E+12,0,0.14,0.28,-0.14,0.613,0.659,-0.066,3
1.57632E+12,0,-0.49,-0.35,-0.42,0.614,0.659,-0.067,3
1.57632E+12,0,1.75,2.87,-0.7,0.598,0.658,-0.077,3
1.57632E+12,78,-2.03,-0.49,0.42,0.596,0.659,-0.076,3
1.57632E+12,77,-1.12,0.91,1.05,0.603,0.659,-0.069,3
1.57632E+12,76,5.6,-3.78,-2.59,0.604,0.659,-0.072,4
1.57632E+12,75,-1.33,-1.75,-0.63,0.602,0.659,-0.065,3
1.57632E+12,75,-2.38,1.61,-0.63,0.597,0.66,-0.07,2
1.57632E+12,74,23.94,-7.77,-4.41,0.639,0.657,-0.019,2
1.57632E+12,75,4.48,-0.98,-2.24,0.611,0.658,-0.066,2
1.57632E+12,76,2.31,-0.42,0.28,0.612,0.658,-0.06,2
1.57632E+12,77,-0.7,-0.49,0.42,0.609,0.658,-0.066,2
1.57632E+12,78,-1.19,0.07,0.49,0.608,0.658,-0.062,2
1.57632E+12,77,0.7,0.7,-0.07,0.612,0.657,-0.065,2
1.57632E+12,77,4.06,0.21,-1.54,0.599,0.66,-0.068,3
1.57632E+12,78,4.34,-0.35,3.01,0.599,0.66,-0.076,3
1.57632E+12,78,11.55,-2.87,-0.35,0.607,0.66,-0.053,2
1.57632E+12,77,1.82,-0.07,-2.31,0.613,0.658,-0.064,2
1.57632E+12,77,1.96,-1.33,-0.98,0.612,0.657,-0.066,2
1.57632E+12,78,-1.4,-1.26,-0.35,0.61,0.658,-0.07,2
1.57632E+12,78,7.28,-1.82,-4.34,0.61,0.658,-0.069,2
1.57632E+12,78,5.81,5.46,-0.35,0.613,0.657,-0.062,2
1.57632E+12,78,3.29,8.96,-2.03,0.587,0.658,-0.079,2
1.57632E+12,78,-1.54,-7.7,-0.49,0.619,0.656,-0.073,2
1.57632E+12,78,-0.28,0.49,0.7,0.6,0.657,-0.073,1
1.57632E+12,78,2.38,-3.15,-0.56,0.624,0.655,-0.076,1
1.57632E+12,78,0.7,-0.98,-0.14,0.605,0.657,-0.072,1
1.57632E+12,78,-0.49,-3.85,0.14,0.611,0.655,-0.087,2
1.57632E+12,78,-0.91,-2.17,-0.07,0.611,0.656,-0.076,2
1.57632E+12,78,10.64,1.61,-5.18,0.606,0.655,-0.082,2
1.57632E+12,78,-3.85,-2.31,1.54,0.623,0.654,-0.078,2
1.57632E+12,78,-1.12,-0.49,1.19,0.607,0.656,-0.074,2
1.57632E+12,78,-0.35,-2.1,-1.12,0.613,0.657,-0.063,19
1.57632E+12,78,2.31,0.84,2.03,0.603,0.661,-0.05,45
1.57632E+12,78,-1.05,0.07,0.21,0.609,0.658,-0.064,2
1.57632E+12,78,-0.77,-0.7,-0.63,0.61,0.658,-0.063,2
1.57632E+12,78,-0.84,-0.49,0.28,0.616,0.657,-0.061,2
1.57632E+12,78,1.75,-0.56,0.14,0.613,0.657,-0.065,2
1.57632E+12,78,-0.07,-0.42,0.07,0.613,0.657,-0.059,2
1.57632E+12,78,-1.68,1.33,0.07,0.612,0.657,-0.06,1
1.57632E+12,78,0.49,-0.21,-0.14,0.61,0.657,-0.065,2
1.57632E+12,78,-4.48,0.07,1.54,0.602,0.658,-0.07,4
1.57632E+12,78,1.68,0.49,-0.91,0.611,0.657,-0.064,11
1.57632E+12,78,5.6,0.7,-1.26,0.629,0.658,-0.04,2
1.57632E+12,78,2.38,-0.56,-3.36,0.619,0.656,-0.059,2
1.57632E+12,78,-2.66,-2.24,2.17,0.611,0.656,-0.06,2
1.57632E+12,78,0.28,0.21,-0.35,0.62,0.656,-0.058,2
1.57632E+12,78,-2.45,0.42,0.42,0.62,0.655,-0.061,2
1.57632E+12,78,0.21,-0.35,-0.14,0.619,0.655,-0.06,2
1.57632E+12,78,0.56,1.75,-3.29,0.624,0.654,-0.055,2
1.57632E+12,0,0.28,-0.21,0.28,0.604,0.657,-0.065,3
1.57632E+12,0,-0.84,-0.98,-1.05,0.608,0.656,-0.063,3
1.57632E+12,0,0.77,-0.28,-0.84,0.584,0.658,-0.063,2
1.57632E+12,0,1.19,0.49,-0.28,0.602,0.656,-0.062,2
1.57632E+12,0,-8.4,4.76,6.16,0.598,0.656,-0.052,2
1.57632E+12,0,-1.68,2.8,3.5,0.606,0.655,-0.058,3
1.57632E+12,0,-1.05,1.33,1.82,0.613,0.654,-0.065,2
1.57632E+12,0,1.19,-2.8,-3.22,0.615,0.654,-0.058,2
1.57632E+12,0,-2.59,-1.68,1.12,0.616,0.654,-0.064,3
1.57632E+12,0,-1.61,-1.47,0.77,0.615,0.656,-0.045,3
1.57632E+12,0,1.68,1.82,-4.13,0.591,0.658,-0.071,4
1.57632E+12,0,8.26,3.57,-10.01,0.619,0.655,-0.07,3
1.57632E+12,0,10.57,-0.42,-0.14,0.595,0.658,-0.047,2
1.57632E+12,0,-0.14,1.61,1.05,0.702,0.645,0.026,4
1.57632E+12,0,0.7,0.84,2.73,0.696,0.647,0.032,3
1.57632E+12,0,0.35,0.07,-0.07,0.696,0.648,0.016,3
1.57632E+12,0,-0.91,0.28,-0.49,0.692,0.649,0.015,3
1.57632E+12,0,0.21,0.49,2.59,0.698,0.648,0.019,2
1.57632E+12,0,-1.12,0.84,-0.49,0.694,0.648,0.016,3
1.57632E+12,0,-0.77,0.49,0.21,0.693,0.649,0.017,3
1.57632E+12,0,-0.07,0.56,0.63,0.694,0.649,0.024,3
1.57632E+12,0,-1.75,2.03,-0.35,0.701,0.649,0.023,3
1.57632E+12,0,1.47,0.21,-0.07,0.696,0.65,0.026,3
1.57632E+12,0,-0.42,0.14,0.07,0.693,0.649,0.022,3
1.57632E+12,0,-1.82,-1.61,-2.1,0.693,0.649,0.016,3
1.57632E+12,70,-1.26,-0.14,-0.56,0.695,0.649,0.024,3
1.57632E+12,68,-0.91,-0.14,-0.28,0.7,0.649,0.027,3
1.57632E+12,68,-1.82,2.24,-0.42,0.706,0.649,0.032,3
1.57632E+12,67,1.54,0.21,0.42,0.694,0.649,0.021,2
1.57632E+12,67,0.35,-0.21,-0.07,0.703,0.648,0.034,3
1.57632E+12,66,-6.02,6.72,1.54,0.699,0.649,0.029,4
1.57632E+12,67,1.47,-0.42,-0.21,0.701,0.648,0.039,5
1.57632E+12,67,0.35,0.77,0.14,0.692,0.649,0.038,4
1.57632E+12,67,-0.91,0.77,-0.49,0.693,0.65,0.038,5
1.57632E+12,67,-1.26,0.49,-0.91,0.693,0.65,0.035,4
1.57632E+12,67,6.23,-1.54,-0.07,0.713,0.648,0.047,4
1.57632E+12,67,0.63,-0.21,-0.42,0.699,0.649,0.043,4
1.57632E+12,67,-1.4,1.47,-0.21,0.706,0.649,0.042,4
1.57632E+12,67,-0.56,4.76,-2.1,0.7,0.648,0.046,4
1.57632E+12,67,-0.7,-0.42,0.98,0.707,0.647,0.033,4
1.57632E+12,67,-47.53,-5.32,1.05,0.561,0.595,-0.316,1
1.57632E+12,67,60.13,-15.12,-4.55,0.668,0.633,-0.087,2
1.57632E+12,67,1.47,0.07,-0.49,0.664,0.646,-0.062,4
1.57632E+12,67,-2.73,1.54,0.49,0.663,0.648,-0.05,3
1.57632E+12,67,0.56,-0.42,0.07,0.66,0.649,-0.045,3
1.57632E+12,67,-2.8,0.84,0.21,0.66,0.649,-0.046,3
1.57632E+12,67,0.42,-0.42,-0.14,0.657,0.649,-0.052,3
1.57632E+12,67,9.31,-1.75,-2.8,0.67,0.646,-0.04,3
1.57632E+12,67,-0.56,-0.49,-0.98,0.665,0.649,-0.028,27
1.57632E+12,67,-1.12,-1.05,-0.21,0.659,0.651,-0.032,48
1.57632E+12,67,1.26,0.35,0.77,0.663,0.651,-0.026,49
1.57632E+12,67,-5.25,-0.14,0.42,0.652,0.652,-0.035,57
1.57632E+12,67,-0.56,1.33,0.42,0.654,0.651,-0.048,56
1.57632E+12,67,3.08,10.64,0.98,0.624,0.651,-0.036,33
1.57632E+12,67,36.82,10.64,1.26,0.352,0.549,-0.472,3
1.57632E+12,67,46.41,-13.93,19.67,0.479,0.552,-0.43,5
1.57632E+12,67,-1.19,-24.64,-4.41,0.602,0.619,-0.228,23
1.57632E+12,67,6.09,4.41,-11.9,0.51,0.667,-0.255,2
1.57632E+12,67,-11.69,-0.49,12.25,0.493,0.667,-0.251,3
1.57632E+12,67,-6.65,7.28,2.66,0.457,0.682,-0.211,3
1.57632E+12,0,0.49,0.21,-1.4,0.489,0.687,-0.19,3
1.57632E+12,0,0.35,0.63,-1.4,0.486,0.687,-0.188,3
1.57632E+12,0,-1.33,-0.7,-1.26,0.487,0.684,-0.195,3
1.57632E+12,0,-0.91,-0.14,0.28,0.489,0.684,-0.197,3
1.57632E+12,0,-0.7,-0.21,0.14,0.489,0.684,-0.194,3
1.57632E+12,0,0.14,-0.91,1.33,0.489,0.685,-0.196,3
1.57632E+12,0,0.07,-0.98,-2.38,0.487,0.683,-0.2,3
1.57632E+12,0,-1.75,-0.28,2.66,0.488,0.691,-0.172,3
1.57632E+12,0,0.84,-0.42,0.28,0.49,0.692,-0.17,4
1.57632E+12,0,2.73,-0.56,0.98,0.501,0.686,-0.184,3
1.57632E+12,0,-7.91,-0.56,-0.56,0.705,0.674,-0.05,28
1.57632E+12,0,-0.63,-11.55,-12.11,0.749,0.644,-0.021,73
1.57632E+12,0,-10.29,-1.4,0.07,0.711,0.649,-0.082,58
1.57632E+12,0,-0.35,0.35,-0.14,0.701,0.646,-0.098,50
1.57632E+12,0,49.42,5.25,0.07,0.73,0.648,-0.037,56
1.57632E+12,0,-7.49,-1.47,-2.1,0.701,0.653,-0.044,56
1.57632E+12,0,-10.22,11.41,3.43,0.72,0.656,0,93
1.57632E+12,0,0.49,1.26,0.21,0.708,0.653,-0.041,93
1.57632E+12,0,10.78,-4.06,-8.89,0.748,0.641,-0.005,94
1.57632E+12,73,5.53,2.45,-0.35,0.765,0.631,-0.024,145
1.57632E+12,72,23.1,-22.68,-43.4,0.784,0.611,-0.028,173
1.57632E+12,72,-28.63,18.34,-20.37,-0.832,0.555,0.006,91
1.57632E+12,72,3.71,7.91,11.9,0.834,0.538,-0.077,42
1.57632E+12,73,-10.92,-1.4,-4.97,0.834,0.51,-0.179,44
1.57632E+12,74,3.08,0.28,0.21,-0.837,0.51,0.17,65
1.57632E+12,76,10.99,0.7,3.71,-0.834,0.508,0.181,72
1.57632E+12,77,2.94,1.19,-0.21,-0.834,0.506,0.188,67
1.57632E+12,79,-2.17,0.84,-6.72,0.83,0.522,-0.155,162
1.57632E+12,79,-9.52,-2.45,-0.28,0.835,0.516,-0.162,141
1.57632E+12,79,1.47,0.49,-0.14,0.836,0.516,-0.157,102
1.57632E+12,80,-10.57,0.42,2.66,0.833,0.51,-0.182,109
1.57632E+12,80,-5.46,-0.84,-3.99,0.828,0.517,-0.174,72
1.57632E+12,80,-1.68,-2.1,3.99,0.831,0.51,-0.19,81
1.57632E+12,80,-18.48,3.85,-2.94,-0.828,0.501,0.214,56
1.57632E+12,80,-2.8,-0.63,-7.35,0.829,0.502,-0.207,72
1.57632E+12,80,7.07,-0.84,-2.52,0.83,0.5,-0.21,56
1.57632E+12,80,-4.83,-0.21,-2.1,0.833,0.504,-0.191,80
1.57632E+12,80,1.05,-0.14,-0.98,0.832,0.503,-0.193,81
1.57632E+12,80,0.7,0.28,1.47,0.828,0.502,-0.207,69
1.57632E+12,80,-1.19,-0.14,-8.68,0.83,0.516,-0.17,112
1.57632E+12,80,-3.36,-0.84,-0.28,0.832,0.51,-0.18,92
1.57632E+12,80,13.79,-1.19,1.96,0.822,0.495,-0.233,46
1.57632E+12,80,-9.94,0.14,-1.26,0.834,0.506,-0.18,91
1.57632E+12,80,-15.68,-0.35,-3.01,0.833,0.503,-0.19,71
1.57632E+12,80,3.92,0.91,-1.4,0.822,0.493,-0.239,45
1.57632E+12,80,8.05,-3.78,6.09,0.835,0.507,-0.174,98
1.57632E+12,80,2.87,-0.42,1.26,0.832,0.5,-0.201,89
1.57632E+12,80,1.33,0.28,-0.07,0.834,0.502,-0.191,87
1.57632E+12,80,-0.56,0.35,-1.89,0.835,0.501,-0.19,88
1.57632E+12,80,-13.86,-2.31,-3.5,0.835,0.513,-0.159,93
1.57632E+12,80,-0.28,-0.07,-2.59,0.832,0.496,-0.208,71
1.57632E+12,80,1.26,-0.28,-0.07,0.837,0.503,-0.18,89
1.57632E+12,80,-36.4,-0.7,6.93,0.817,0.493,-0.246,45
1.57632E+12,80,20.3,0.84,-2.45,0.833,0.495,-0.211,42
1.57632E+12,80,1.82,-0.21,0.14,0.839,0.503,-0.17,63
1.57632E+12,80,1.75,-0.14,0.28,0.844,0.508,-0.142,147
1.57632E+12,80,-15.54,-0.63,-0.77,0.838,0.506,-0.167,125
1.57632E+12,80,-6.23,-0.28,1.82,0.824,0.495,-0.228,61
1.57632E+12,80,-9.24,-1.68,-1.82,-0.849,0.512,0.103,101
1.57632E+12,80,-3.36,-0.77,1.05,0.809,0.484,-0.285,31
1.57632E+12,0,-5.39,0.63,-0.42,0.808,0.485,-0.28,23
1.57632E+12,0,1.19,-0.21,-0.63,-0.802,0.466,0.322,23
1.57632E+12,0,4.34,2.52,1.19,-0.804,0.467,0.317,28
1.57632E+12,0,-10.99,-2.8,-0.21,-0.8,0.468,0.321,31
1.57632E+12,0,0.91,0.63,0.28,-0.804,0.468,0.316,32
1.57632E+12,0,14.21,0.91,0.14,0.821,0.489,-0.25,60
1.57632E+12,0,1.96,-7.84,12.25,0.826,0.538,-0.129,134
1.57632E+12,0,-21.98,1.12,-4.48,0.829,0.518,-0.174,90
1.57632E+12,0,0.84,-2.38,2.66,0.797,0.493,-0.295,27
1.57632E+12,0,-10.22,-0.77,-0.91,0.842,0.523,-0.109,108
1.57632E+12,0,-1.33,-1.12,0.14,0.835,0.514,-0.164,92
1.57632E+12,0,-1.19,-0.91,-0.91,0.831,0.513,-0.178,70
1.57632E+12,0,19.81,-1.26,19.11,0.829,0.528,-0.15,140
1.57632E+12,0,14.28,3.99,8.68,0.803,0.533,-0.19,91
1.57632E+12,0,-12.88,0.91,-3.85,0.822,0.512,-0.202,66
1.57632E+12,0,-1.05,-1.4,-0.7,0.817,0.505,-0.226,62
1.57632E+12,0,2.45,-0.7,1.75,0.821,0.495,-0.24,79
1.57632E+12,0,-2.73,0.84,2.38,0.821,0.501,-0.222,93
1.57632E+12,0,2.66,-0.63,-1.26,0.82,0.495,-0.238,79
1.57632E+12,0,-0.21,0.14,0.28,0.823,0.497,-0.226,82
1.57632E+12,85,1.89,0.35,0.91,0.823,0.497,-0.226,83
1.57632E+12,85,-2.1,-0.07,0.14,0.822,0.497,-0.228,84
1.57632E+12,85,-43.4,15.12,-16.24,-0.642,0.472,0.317,33
1.57632E+12,86,240.52,30.59,8.54,-0.647,0.53,0.081,34
1.57632E+12,87,6.72,2.17,-8.54,-0.748,0.48,0.035,66
1.57632E+12,88,49.35,14.14,-1.89,-0.831,0.425,-0.12,96
1.57632E+12,88,9.66,-9.1,-13.16,-0.793,0.427,-0.106,80
1.57632E+12,86,-21.28,1.89,2.73,0.807,0.425,-0.357,58
1.57632E+12,86,-8.89,-0.84,-3.01,0.814,0.435,-0.329,56
1.57632E+12,84,3.43,-0.42,-3.01,0.799,0.415,-0.383,31
1.57632E+12,83,10.78,-2.38,-2.17,0.801,0.418,-0.374,42
1.57632E+12,84,2.45,-4.13,-1.54,0.797,0.417,-0.383,37
1.57632E+12,84,1.05,-0.21,-0.98,0.81,0.416,-0.367,46
1.57632E+12,84,-1.75,1.33,-1.33,0.804,0.415,-0.375,48
1.57632E+12,84,-1.33,0.21,0.63,0.8,0.416,-0.38,42
1.57632E+12,84,2.94,-1.26,-0.42,0.802,0.415,-0.377,42
1.57632E+12,84,-0.14,-0.14,-0.14,0.788,0.408,-0.407,28
1.57632E+12,84,2.8,-0.07,-0.07,0.797,0.413,-0.387,29
1.57632E+12,84,0.77,0.7,0.14,0.8,0.416,-0.379,32
1.57632E+12,84,1.47,0.7,-1.68,0.804,0.417,-0.372,34
1.57632E+12,84,1.4,-0.14,0.21,0.804,0.414,-0.376,34
1.57632E+12,84,14.07,2.59,1.68,0.816,0.425,-0.34,50
1.57632E+12,84,-5.39,0.63,8.12,0.799,0.414,-0.383,60
1.57632E+12,84,3.92,0.07,-0.42,0.799,0.416,-0.38,39
1.57632E+12,84,-7.14,2.94,-7.63,0.806,0.435,-0.34,72
1.57632E+12,84,-4.27,0.28,-1.05,0.803,0.425,-0.361,63
1.57632E+12,84,45.5,-8.4,-7.14,-0.829,0.417,0.333,64
1.57632E+12,84,5.04,1.19,4.48,0.814,0.463,-0.303,94
1.57632E+12,84,4.62,-14.7,-1.33,-0.849,0.485,0.134,164
1.57632E+12,84,-22.33,-16.8,-12.39,-0.836,0.505,0.068,180
1.57632E+12,84,-3.57,3.71,7.28,-0.823,0.49,0.234,84
1.57632E+12,84,-42.49,3.99,-0.28,-0.722,0.406,0.488,38
1.57632E+12,84,-28.98,16.45,0.98,-0.569,0.457,0.521,28
1.57632E+12,84,70.84,-11.55,53.13,-0.736,0.474,-0.121,73
1.57632E+12,84,-23.17,-29.05,4.48,-0.75,0.51,-0.053,232
1.57632E+12,84,86.8,37.87,6.44,0.792,0.447,-0.354,54
1.57632E+12,84,-4.76,3.71,3.5,0.809,0.455,-0.318,26
1.57632E+12,84,1.89,0.21,0.77,0.802,0.452,-0.33,29
1.57632E+12,84,62.58,26.67,8.96,0.77,0.428,-0.391,42
1.57632E+12,84,-3.71,-0.56,8.75,0.809,0.478,-0.279,35
1.57632E+12,0,-10.29,-1.19,-0.07,0.808,0.483,-0.267,51
1.57632E+12,0,1.19,-0.28,-0.77,0.811,0.471,-0.284,38
1.57632E+12,0,4.97,1.33,-1.61,0.803,0.461,-0.312,30
1.57632E+12,0,-0.49,0.21,-1.61,0.81,0.466,-0.292,34
1.57632E+12,0,0.56,-0.14,-0.56,0.811,0.467,-0.289,32
1.57632E+12,0,0.63,-0.07,0.21,0.813,0.467,-0.285,33
1.57632E+12,0,-0.42,-0.07,-0.21,0.812,0.466,-0.288,32
1.57632E+12,0,-4.62,-1.47,1.54,0.815,0.47,-0.274,50
1.57632E+12,0,2.66,0.91,0.84,0.815,0.474,-0.26,37
1.57632E+12,0,-1.96,-0.07,1.47,0.815,0.46,-0.292,33
1.57632E+12,0,-0.98,-0.14,-1.26,0.819,0.463,-0.277,37
1.57632E+12,0,-1.33,0.07,0.07,0.818,0.461,-0.281,32
1.57632E+12,0,-3.29,-0.14,-2.31,0.817,0.462,-0.281,28
1.57632E+12,73,-0.56,-0.07,-0.56,0.819,0.463,-0.277,31
1.57632E+12,73,0.07,0.07,-0.07,0.82,0.463,-0.274,30
1.57632E+12,73,-2.66,0.21,-1.12,0.823,0.463,-0.271,37
1.57632E+12,74,0.07,-0.07,-0.21,0.821,0.463,-0.272,33
1.57632E+12,74,0.28,0.28,-0.07,0.822,0.464,-0.269,37
1.57632E+12,75,1.47,0.14,-0.98,0.824,0.462,-0.27,37
1.57632E+12,75,0.91,0.42,-0.28,0.821,0.462,-0.275,37
1.57632E+12,76,1.68,-0.49,-0.84,0.819,0.462,-0.278,35
1.57632E+12,76,3.99,0.49,1.96,0.816,0.462,-0.284,57
1.57632E+12,75,6.23,1.89,-6.37,0.824,0.475,-0.242,85
1.57632E+12,75,22.75,0.98,3.92,0.813,0.472,-0.269,64
1.57632E+12,75,2.87,1.4,6.09,0.822,0.459,-0.278,38
1.57632E+12,75,-0.91,1.19,1.96,0.814,0.465,-0.28,45
1.57632E+12,75,3.85,0.21,2.24,0.813,0.467,-0.277,46
1.57632E+12,76,-3.36,0.49,0.14,0.813,0.46,-0.289,44
1.57632E+12,77,7.7,0.35,1.89,0.813,0.462,-0.286,38
1.57632E+12,77,0.98,-0.07,-0.21,0.816,0.465,-0.275,46
1.57632E+12,78,0.77,-1.47,-2.45,0.812,0.465,-0.283,48
1.57632E+12,78,0.7,0.14,-0.84,0.819,0.466,-0.269,53
1.57632E+12,78,-9.87,5.46,-14.14,0.811,0.458,-0.296,42
1.57632E+12,78,0.42,-0.63,-1.96,0.8,0.44,-0.34,30
1.57632E+12,78,-1.89,-21,-9.17,-0.846,0.504,0.128,184
1.57632E+12,78,-17.29,12.6,-4.34,0.847,0.48,-0.168,106
1.57632E+12,78,1.19,1.26,-11.34,0.823,0.442,-0.307,38
1.57632E+12,78,1.47,0.84,-2.52,0.827,0.445,-0.294,48
1.57632E+12,78,-1.19,0.63,-0.56,0.824,0.448,-0.294,51
1.57632E+12,78,0.63,0.14,1.05,0.826,0.45,-0.288,58
1.57632E+12,78,5.88,-1.12,-1.82,0.824,0.45,-0.292,59
1.57632E+12,78,-0.14,-0.07,-1.19,0.83,0.453,-0.275,51
1.57632E+12,78,0.77,-0.14,-0.28,0.831,0.456,-0.266,58
1.57632E+12,78,-0.63,0.63,-2.87,0.832,0.46,-0.258,56
1.57632E+12,78,-3.15,1.26,4.06,0.826,0.451,-0.283,40
1.57632E+12,78,-0.84,-0.42,-1.19,0.824,0.452,-0.286,43
1.57632E+12,78,3.85,0.56,2.24,0.832,0.457,-0.263,75
1.57632E+12,78,4.34,-1.26,1.19,0.832,0.455,-0.267,66
1.57632E+12,78,-54.04,20.44,-16.03,-0.835,0.459,0.262,141
1.57632E+12,78,-15.82,2.52,5.88,0.811,0.434,-0.343,107
1.57632E+12,78,-16.45,4.06,-1.89,-0.808,0.439,0.341,87
1.57632E+12,78,-29.68,-11.41,-2.8,-0.754,0.433,0.422,54
1.57632E+12,78,-11.34,-2.03,-3.64,0.766,0.445,-0.397,42
1.57632E+12,78,-3.01,0.7,-1.89,0.758,0.439,-0.417,39
1.57632E+12,78,3.43,-0.35,-0.49,0.754,0.436,-0.424,41
1.57632E+12,78,0.56,0.14,-0.28,0.76,0.438,-0.414,43
1.57632E+12,78,1.54,-2.87,-1.89,-0.792,0.452,0.353,61
1.57632E+12,78,1.12,0.56,0.14,0.768,0.443,-0.4,37
1.57632E+12,78,3.15,1.61,0.35,0.772,0.446,-0.39,54
1.57632E+12,78,-1.47,0.42,-0.49,0.774,0.443,-0.391,26
1.57632E+12,0,-0.14,-0.21,-0.07,0.782,0.45,-0.372,59
1.57632E+12,0,-1.33,0.28,-0.42,0.772,0.444,-0.393,40
1.57632E+12,0,-2.73,1.05,-0.91,-0.785,0.443,0.376,33
1.57632E+12,0,2.94,0.56,0.84,-0.78,0.44,0.388,36
1.57632E+12,0,-2.24,-0.77,-0.49,0.771,0.445,-0.391,42
1.57632E+12,0,-7.28,-0.49,-1.33,-0.771,0.43,0.409,44
1.57632E+12,0,0.14,-0.7,-0.07,0.769,0.436,-0.406,46
1.57632E+12,0,-0.14,-0.7,-0.14,0.766,0.436,-0.41,42
1.57632E+12,0,0.84,0.14,0.21,0.77,0.436,-0.405,47
1.57632E+12,0,6.02,1.61,1.12,0.777,0.444,-0.386,54
1.57632E+12,0,-5.46,-0.42,-0.91,0.783,0.443,-0.379,58
1.57632E+12,73,-4.06,-2.17,-0.91,-0.777,0.434,0.397,56
1.57632E+12,74,-1.26,-3.85,-0.84,-0.787,0.442,0.375,59
1.57632E+12,74,9.31,0.84,1.54,0.774,0.443,-0.39,46
1.57632E+12,75,-2.03,0.63,0.07,0.777,0.443,-0.386,57
1.57632E+12,75,5.53,2.1,0.98,0.78,0.441,-0.385,53
1.57632E+12,75,-3.57,-1.61,-1.05,0.774,0.436,-0.399,51
1.57632E+12,75,0.77,1.89,1.75,0.78,0.443,-0.38,56
1.57632E+12,75,1.82,0.35,0.14,0.781,0.44,-0.384,56
1.57632E+12,76,0.21,0.28,0.07,0.782,0.441,-0.382,56
1.57632E+12,76,-1.33,-0.63,-0.21,0.78,0.441,-0.385,55
1.57632E+12,77,-0.14,-0.49,-0.21,0.783,0.442,-0.379,54
1.57632E+12,77,-1.26,0.21,-0.07,0.783,0.442,-0.379,57
1.57632E+12,77,-2.59,-0.77,-0.21,0.783,0.442,-0.379,58
1.57632E+12,77,-0.42,-0.49,-0.21,0.784,0.444,-0.373,51
1.57632E+12,77,0.35,0.07,-0.07,0.786,0.444,-0.372,52
1.57632E+12,77,-0.49,0.28,-0.21,0.785,0.444,-0.372,53
1.57632E+12,77,-17.36,1.75,5.32,0.766,0.455,-0.374,54
1.57632E+12,77,-8.05,-2.66,-0.7,0.787,0.444,-0.371,64
1.57632E+12,78,3.15,0.42,0.35,0.787,0.446,-0.368,65
1.57632E+12,77,-1.89,0.21,0.49,0.785,0.445,-0.371,61
1.57632E+12,77,1.26,0.28,-0.21,0.788,0.447,-0.366,57
1.57632E+12,77,3.71,2.31,-0.56,0.804,0.456,-0.325,60
1.57632E+12,77,7.21,4.83,0.91,0.795,0.45,-0.35,67
1.57632E+12,77,4.76,3.08,0.07,0.797,0.449,-0.348,41
1.57632E+12,77,-6.09,-2.94,-0.21,0.805,0.452,-0.331,73
1.57632E+12,77,0.77,0.14,0.07,0.798,0.449,-0.347,48
1.57632E+12,77,0.21,0.84,0.21,0.796,0.447,-0.352,57
1.57632E+12,77,0.91,0.49,-0.07,0.789,0.442,-0.37,61
1.57632E+12,77,1.05,0.28,-0.7,0.795,0.444,-0.357,70
1.57632E+12,77,-1.33,-0.84,-0.49,0.792,0.442,-0.367,65
1.57632E+12,77,21.49,6.51,0.84,0.794,0.446,-0.356,56
1.57632E+12,77,4.62,0.98,0.21,0.79,0.439,-0.373,65
1.57632E+12,77,1.68,0.35,0.21,0.792,0.441,-0.368,68
1.57632E+12,77,-0.21,-0.14,-0.28,0.791,0.44,-0.371,65
1.57632E+12,77,0.42,0.21,0.07,0.79,0.44,-0.372,66
1.57632E+12,77,-0.84,0.63,0.21,0.791,0.439,-0.372,67
1.57632E+12,77,0.42,1.12,0.28,0.788,0.437,-0.378,65
1.57632E+12,77,-4.62,-1.54,-0.98,0.791,0.438,-0.373,61
1.57632E+12,77,17.43,-1.12,-0.28,0.765,0.43,-0.413,32
1.57632E+12,77,-2.17,0.28,-1.61,0.778,0.427,-0.403,51
1.57632E+12,77,-14.28,-12.88,-3.99,-0.742,0.401,0.472,42
1.57632E+12,77,5.39,0.98,0.28,0.789,0.439,-0.367,47
1.57632E+12,77,6.23,1.4,0.7,0.781,0.43,-0.39,44
1.57632E+12,77,8.68,0.84,4.62,0.782,0.44,-0.374,50
1.57632E+12,77,-2.87,-4.9,-1.19,0.799,0.46,-0.315,51
1.57632E+12,77,2.66,0.28,-0.7,0.779,0.439,-0.378,48
1.57632E+12,77,20.79,2.1,1.96,0.809,0.46,-0.304,78
1.57632E+12,77,14,2.8,0.63,0.815,0.459,-0.297,89
1.57632E+12,77,6.23,1.26,0.42,0.817,0.469,-0.272,84
1.57632E+12,0,-10.29,2.31,-1.12,0.817,0.483,-0.235,75
1.57632E+12,0,19.39,8.54,2.03,0.824,0.48,-0.227,93
1.57632E+12,0,-42.77,-28,-4.06,0.793,0.46,-0.322,84
1.57632E+12,0,-7.49,0.21,0.49,0.777,0.436,-0.389,60
1.57632E+12,0,2.66,-1.68,-7.14,0.767,0.445,-0.386,53
1.57632E+12,0,0.28,-0.14,-0.14,0.769,0.442,-0.389,54
1.57632E+12,0,-0.35,0.07,0.21,0.767,0.443,-0.389,55
1.57632E+12,0,-0.84,-0.28,0.14,0.766,0.442,-0.393,56
1.57632E+12,0,1.61,0.14,-0.35,0.77,0.443,-0.386,57
1.57632E+12,0,2.24,1.4,2.73,0.786,0.45,-0.354,40
1.57632E+12,0,17.43,12.18,5.25,0.791,0.452,-0.349,31
1.57632E+12,0,47.88,-50.96,-20.37,-0.83,0.483,0.192,67
1.57632E+12,0,-40.6,-14.21,-7.07,0.72,0.417,-0.474,28
1.57632E+12,0,-9.94,1.96,0.21,0.758,0.43,-0.42,39
1.57632E+12,0,6.72,2.59,-0.63,0.742,0.412,-0.457,36
1.57632E+12,0,12.67,2.87,1.61,0.764,0.44,-0.397,42
1.57632E+12,0,-2.66,0.42,-3.08,0.773,0.449,-0.372,46
1.57632E+12,81,8.12,2.87,-0.07,0.765,0.453,-0.374,45
1.57632E+12,82,-7.56,0.07,-7.28,0.776,0.457,-0.353,57
1.57632E+12,82,0.63,1.33,4.69,0.77,0.442,-0.385,55
1.57632E+12,82,9.66,5.04,7.56,0.751,0.467,-0.361,53
1.57632E+12,82,-7.14,-2.8,-3.57,0.774,0.447,-0.372,52
1.57632E+12,81,-11.27,-3.78,-1.47,0.766,0.442,-0.389,54
1.57632E+12,81,-7.21,0.14,1.61,0.757,0.443,-0.397,52
1.57632E+12,80,0.28,1.4,-1.26,0.772,0.452,-0.365,56
1.57632E+12,80,-5.18,-1.19,-0.49,0.77,0.445,-0.377,55
1.57632E+12,79,-3.36,-0.98,0.49,0.77,0.445,-0.377,53
1.57632E+12,78,0.14,0.63,-0.35,0.773,0.446,-0.371,56
1.57632E+12,78,-1.96,-1.26,-2.03,0.774,0.445,-0.373,56
1.57632E+12,76,19.67,0.63,-0.14,0.784,0.455,-0.344,60
1.57632E+12,75,7.91,3.64,3.15,0.766,0.443,-0.387,58
1.57632E+12,75,-1.47,-0.49,-0.49,0.766,0.454,-0.366,56
1.57632E+12,75,0.42,-0.28,-1.68,0.774,0.445,-0.371,53
1.57632E+12,75,-11.48,-4.69,-3.5,0.769,0.446,-0.374,56
1.57632E+12,75,-20.02,-2.03,-2.31,0.766,0.446,-0.379,58
1.57632E+12,75,-0.07,-0.91,-1.54,0.747,0.431,-0.423,29
1.57632E+12,75,3.01,0.91,-0.14,0.749,0.431,-0.421,40
1.57632E+12,75,-1.54,-0.28,-1.61,0.753,0.431,-0.417,41
1.57632E+12,75,-3.22,-2.1,1.61,0.766,0.45,-0.373,56
1.57632E+12,75,-1.26,-2.17,-1.89,0.768,0.447,-0.376,54
1.57632E+12,75,-3.85,-1.61,-2.24,0.757,0.432,-0.411,46
1.57632E+12,75,2.8,0.14,-0.91,0.753,0.427,-0.422,42
1.57632E+12,75,8.05,1.96,-0.98,0.75,0.431,-0.42,42
1.57632E+12,75,3.92,1.89,-2.03,0.754,0.433,-0.413,44
1.57632E+12,75,-0.98,-2.66,-1.89,0.74,0.416,-0.45,42
1.57632E+12,75,7.49,-2.52,-0.84,0.75,0.427,-0.425,40
1.57632E+12,75,6.51,2.38,-0.77,0.749,0.429,-0.422,42
1.57632E+12,75,-2.66,-1.19,-0.56,0.759,0.438,-0.398,48
1.57632E+12,75,-1.96,-0.7,1.33,0.758,0.432,-0.408,48
1.57632E+12,75,23.17,6.58,-9.24,0.741,0.426,-0.434,35
1.57632E+12,75,0.42,-0.35,1.05,0.747,0.427,-0.427,41
1.57632E+12,75,0.35,0.56,0.42,0.755,0.431,-0.413,45
1.57632E+12,75,5.25,0.84,-1.05,0.756,0.434,-0.406,42
1.57632E+12,75,11.62,4.48,2.66,0.776,0.441,-0.373,49
1.57632E+12,75,9.31,6.23,1.05,0.756,0.436,-0.403,46
1.57632E+12,75,0.28,-3.01,-5.04,0.777,0.445,-0.364,35
1.57632E+12,75,4.9,-0.28,0.77,0.77,0.441,-0.38,55
1.57632E+12,75,-14.07,-1.19,-2.17,0.761,0.431,-0.407,53
1.57632E+12,75,-3.15,-1.12,-0.77,0.767,0.431,-0.399,52
1.57632E+12,75,-1.47,-1.26,1.05,0.756,0.429,-0.414,45
1.57632E+12,0,-27.51,-7,8.12,0.75,0.436,-0.411,42
1.57632E+12,0,-11.34,-0.14,-1.61,0.747,0.43,-0.423,47
1.57632E+12,0,-1.61,0.28,-0.21,0.76,0.434,-0.403,49
1.57632E+12,0,-11.62,-5.67,-3.22,0.757,0.427,-0.417,47
1.57632E+12,0,-5.67,-1.96,0.35,0.738,0.42,-0.447,40
1.57632E+12,0,-2.03,-1.96,-0.77,0.744,0.421,-0.439,41
1.57632E+12,0,-1.33,-0.14,0.07,0.747,0.423,-0.433,42
1.57632E+12,0,0.91,-0.7,0.7,0.724,0.412,-0.47,31
1.57632E+12,0,5.11,0.42,2.31,0.721,0.416,-0.468,32
1.57632E+12,0,0.7,0.28,-0.42,0.737,0.422,-0.445,36
1.57632E+12,0,24.43,10.57,4.34,0.736,0.427,-0.437,35
1.57632E+12,77,9.24,1.26,-1.05,0.746,0.422,-0.436,37
1.57632E+12,77,2.03,0.84,-0.84,0.74,0.422,-0.442,37
1.57632E+12,78,1.12,-0.14,-0.14,0.743,0.423,-0.437,41
1.57632E+12,78,-3.99,-1.89,-0.35,0.742,0.422,-0.439,40
1.57632E+12,78,6.72,1.54,0.84,0.745,0.418,-0.441,41
1.57632E+12,79,0.07,0.21,-0.07,0.743,0.419,-0.442,41
1.57632E+12,78,9.66,1.26,1.61,0.746,0.429,-0.424,40
1.57632E+12,77,2.03,1.33,-2.38,0.748,0.422,-0.432,41
1.57632E+12,77,13.86,7.35,5.6,0.754,0.431,-0.412,42
1.57632E+12,76,7.98,3.64,0.7,0.752,0.424,-0.424,42
1.57632E+12,76,6.37,2.8,-0.14,0.764,0.431,-0.401,46
1.57632E+12,76,3.78,1.33,-0.7,0.769,0.432,-0.393,49
1.57632E+12,77,-0.21,-0.28,-0.84,0.77,0.435,-0.387,51
1.57632E+12,77,-2.87,1.68,0.14,0.776,0.44,-0.372,49
1.57632E+12,78,1.19,-1.89,-1.68,0.776,0.433,-0.383,48
1.57632E+12,78,7.84,2.59,2.24,0.772,0.438,-0.379,46
1.57632E+12,78,16.45,1.89,-1.82,0.78,0.44,-0.365,46
1.57632E+12,78,-3.92,-1.89,0.77,0.777,0.439,-0.372,51
1.57632E+12,79,5.74,0.56,2.59,0.784,0.441,-0.359,51
1.57632E+12,79,4.55,1.4,1.26,0.776,0.438,-0.374,49
1.57632E+12,79,1.26,0.07,1.47,0.779,0.441,-0.365,51
1.57632E+12,79,2.24,-3.08,-6.02,0.778,0.436,-0.374,55
1.57632E+12,79,-1.47,-1.12,3.36,0.783,0.439,-0.363,61
1.57632E+12,79,6.79,2.38,-0.14,0.776,0.437,-0.376,59
1.57632E+12,79,-10.57,-6.3,-0.07,0.769,0.433,-0.391,51
1.57632E+12,79,-1.4,0.7,1.26,0.777,0.436,-0.377,35
1.57632E+12,79,4.62,1.4,0.07,0.778,0.441,-0.367,30
1.57632E+12,79,-5.95,-2.1,1.4,0.773,0.434,-0.384,58
1.57632E+12,79,7.28,1.68,-0.49,0.782,0.436,-0.369,31
1.57632E+12,79,-14.14,-8.12,-4.55,0.778,0.448,-0.35,56
1.57632E+12,79,-11.76,-4.13,-3.92,0.766,0.431,-0.398,52
1.57632E+12,79,22.68,0.42,2.17,0.777,0.439,-0.372,58
1.57632E+12,79,-2.59,-1.26,-0.91,0.77,0.429,-0.395,45
1.57632E+12,79,-5.6,-2.31,-1.89,0.763,0.432,-0.399,53
1.57632E+12,79,-3.29,-0.07,-0.42,0.764,0.429,-0.402,42
1.57632E+12,79,5.32,1.96,0.35,0.763,0.43,-0.402,50
1.57632E+12,79,6.93,1.89,1.89,0.757,0.421,-0.421,45
1.57632E+12,79,5.74,2.87,0.14,0.76,0.421,-0.419,51
1.57632E+12,79,1.33,0.56,0.14,0.764,0.426,-0.407,49
1.57632E+12,79,-2.31,-0.35,0.98,0.768,0.427,-0.4,51
1.57632E+12,79,-10.92,-2.24,-1.33,0.762,0.427,-0.406,39
1.57632E+12,79,4.69,1.12,-0.63,0.753,0.419,-0.429,28
1.57632E+12,79,1.68,0.56,-0.21,0.751,0.417,-0.434,42
1.57632E+12,79,1.61,-0.28,-0.07,0.753,0.418,-0.429,43
1.57632E+12,79,11.48,1.96,5.11,0.754,0.424,-0.42,42
1.57632E+12,79,-3.01,-0.63,-0.49,0.75,0.417,-0.434,41
1.57632E+12,79,-3.43,0.84,1.19,0.746,0.423,-0.43,42
1.57632E+12,79,13.44,4.97,-4.76,0.779,0.439,-0.367,53
1.57632E+12,79,-11.13,-2.52,1.4,0.758,0.424,-0.416,46
1.57632E+12,0,-4.76,-21.35,8.75,-0.884,0.459,0.056,241
1.57632E+12,0,-9.17,-0.63,-1.05,0.823,0.449,-0.294,66
1.57632E+12,0,-44.03,-10.78,0.14,0.812,0.443,-0.323,63
1.57632E+12,0,-18.83,-10.71,-8.05,0.792,0.448,-0.339,58
1.57632E+12,0,7.42,0.28,-1.61,0.789,0.437,-0.361,59
1.57632E+12,0,3.85,1.19,-0.14,0.781,0.413,-0.408,30
1.57632E+12,0,-2.59,7.98,9.87,0.787,0.415,-0.4,60
1.57632E+12,0,-0.91,-0.21,-0.84,0.788,0.424,-0.381,60
1.57632E+12,0,6.93,1.68,-0.21,0.789,0.425,-0.378,60
1.57632E+12,0,1.33,0.77,0.84,0.793,0.428,-0.367,65
1.57632E+12,0,1.82,0.84,-1.54,0.792,0.431,-0.363,63
1.57632E+12,0,-1.82,-1.54,-1.75,0.792,0.426,-0.368,61
1.57632E+12,0,-1.61,-1.12,-1.26,0.778,0.409,-0.413,48
1.57632E+12,81,-0.56,-0.28,-2.31,0.774,0.416,-0.409,48
1.57632E+12,81,7.91,1.82,-1.47,0.778,0.425,-0.39,52
1.57632E+12,82,-2.66,-0.21,-0.63,0.774,0.423,-0.397,47
1.57632E+12,82,5.81,2.03,0.7,0.781,0.425,-0.385,52
1.57632E+12,83,0.63,0.77,-0.35,0.779,0.424,-0.388,53
1.57632E+12,83,-4.62,-1.4,-0.84,0.776,0.416,-0.404,54
1.57632E+12,83,-8.61,-4.27,2.31,0.772,0.423,-0.398,47
1.57632E+12,83,-1.68,-0.14,1.82,0.767,0.424,-0.402,48
1.57632E+12,83,-9.52,-8.68,3.15,0.774,0.419,-0.404,47
1.57632E+12,82,9.24,10.15,0.42,0.77,0.427,-0.395,43
1.57632E+12,82,1.54,2.52,0.28,0.761,0.412,-0.428,42
1.57632E+12,81,-5.6,-1.12,-0.91,0.759,0.414,-0.428,45
1.57632E+12,80,-0.7,0.07,-0.35,0.773,0.425,-0.396,54
1.57632E+12,80,2.87,0.14,0.07,0.775,0.425,-0.391,41
1.57632E+12,80,8.12,0.49,-10.57,0.783,0.433,-0.369,59
1.57632E+12,79,-7.98,-4.62,-0.7,0.773,0.417,-0.406,35
1.57632E+12,78,-10.36,-1.61,-1.68,0.752,0.409,-0.442,28
1.57632E+12,78,-1.19,0.91,1.12,0.781,0.42,-0.392,55
1.57632E+12,77,-2.66,-0.91,-2.31,0.753,0.408,-0.441,40
1.57632E+12,77,1.96,0.63,0.49,0.764,0.414,-0.419,42
1.57632E+12,77,-2.45,-0.7,0.35,0.765,0.414,-0.418,46
1.57632E+12,77,1.75,0.21,0.42,0.768,0.415,-0.413,46
1.57632E+12,77,-2.87,-0.35,0.07,0.774,0.418,-0.402,47
1.57632E+12,77,-3.92,-0.91,0.14,0.769,0.411,-0.417,46
1.57632E+12,77,-1.26,-0.7,-0.35,0.771,0.413,-0.412,46
1.57632E+12,77,-1.47,-0.7,-0.28,0.772,0.415,-0.407,51
1.57632E+12,77,1.54,0.49,0.42,0.774,0.416,-0.403,51
1.57632E+12,77,-2.87,-0.91,0.7,0.775,0.418,-0.399,55
1.57632E+12,77,-2.8,-1.68,0.98,0.768,0.418,-0.408,52
1.57632E+12,77,-3.36,-1.47,-2.52,0.794,0.426,-0.361,50
1.57632E+12,77,0.56,-0.56,2.52,0.759,0.411,-0.428,30
1.57632E+12,77,-4.97,-1.47,-0.91,0.759,0.412,-0.429,32
1.57632E+12,77,-10.15,-3.29,-4.27,0.761,0.416,-0.421,39
1.57632E+12,77,2.59,-0.63,-1.12,0.75,0.411,-0.44,29
1.57632E+12,77,-0.21,-1.68,0.21,0.736,0.409,-0.457,28
1.57632E+12,77,1.19,0.42,0.28,0.696,0.384,-0.523,27
1.57632E+12,77,-26.74,-14.14,11.62,-0.78,0.382,0.442,41
1.57632E+12,77,-0.91,-1.26,0.28,0.755,0.393,-0.46,38
1.57632E+12,77,0.28,0.98,0.49,0.751,0.393,-0.464,37
1.57632E+12,77,-0.21,0.07,0.56,0.741,0.388,-0.481,35
1.57632E+12,77,-3.22,-0.98,-1.33,0.747,0.394,-0.468,37
1.57632E+12,77,-1.26,-1.12,-1.26,0.745,0.393,-0.471,28
1.57632E+12,77,4.97,-0.91,2.45,0.743,0.408,-0.454,30
1.57632E+12,77,1.61,-0.84,1.47,0.738,0.407,-0.46,37
1.57632E+12,77,-7.42,-2.94,-0.49,0.744,0.4,-0.465,36
1.57632E+12,77,-6.86,0.42,0.28,0.752,0.409,-0.444,38
1.57632E+12,77,8.4,7.49,6.93,0.747,0.412,-0.444,38
1.57632E+12,0,-3.15,-0.63,-0.7,0.753,0.413,-0.438,41
1.57632E+12,0,-1.05,-1.19,-0.35,0.748,0.414,-0.443,40
1.57632E+12,0,35.98,3.71,3.57,0.753,0.421,-0.427,39
1.57632E+12,0,3.36,-0.21,0.98,0.755,0.42,-0.428,44
1.57632E+12,0,0.56,-0.14,1.19,0.744,0.417,-0.445,40
1.57632E+12,0,4.9,1.12,-0.84,0.742,0.409,-0.46,35
1.57632E+12,0,-3.64,-0.77,0.98,0.742,0.418,-0.446,37
1.57632E+12,0,-2.03,-1.47,-0.91,0.73,0.414,-0.465,35
1.57632E+12,0,-0.63,-1.19,0.7,0.715,0.407,-0.489,33
1.57632E+12,0,-1.12,1.96,6.37,0.729,0.421,-0.457,36
1.57632E+12,0,20.09,5.81,6.86,0.746,0.429,-0.431,32
1.57632E+12,0,4.06,4.06,0.63,0.741,0.426,-0.441,42
1.57632E+12,0,-10.57,-1.75,0.49,0.722,0.42,-0.467,41
1.57632E+12,79,5.74,2.66,3.99,0.742,0.434,-0.43,41
1.57632E+12,79,6.16,3.78,2.52,0.745,0.443,-0.414,41
1.57632E+12,79,-0.42,0.7,1.05,0.74,0.438,-0.428,38
1.57632E+12,79,2.52,0.7,0.84,0.737,0.44,-0.428,40
1.57632E+12,80,-2.59,-1.54,-0.84,0.734,0.436,-0.437,35
1.57632E+12,81,-7.91,-1.75,0.14,0.74,0.441,-0.425,46
1.57632E+12,81,-3.15,0.14,0.14,0.728,0.438,-0.441,42
1.57632E+12,81,-1.75,-0.35,-3.57,0.74,0.447,-0.418,42
1.57632E+12,81,4.55,0.07,0.42,0.733,0.444,-0.43,41
1.57632E+12,81,1.75,1.47,2.52,0.729,0.442,-0.436,41
1.57632E+12,80,8.54,1.96,2.03,0.724,0.445,-0.437,38
1.57632E+12,79,28.56,-32.97,-2.59,0.735,0.458,-0.413,55
1.57632E+12,79,-2.24,2.73,0.7,0.774,0.454,-0.367,64
1.57632E+12,79,3.43,0.49,1.05,0.796,0.465,-0.316,77
1.57632E+12,78,0.07,1.26,-0.49,0.788,0.461,-0.336,65
1.57632E+12,78,-0.35,0.98,0.49,0.79,0.461,-0.333,59
1.57632E+12,78,1.61,-0.21,0.07,0.774,0.455,-0.366,54
1.57632E+12,78,-12.04,-1.26,-4.34,-0.814,0.385,0.392,58
1.57632E+12,78,-17.92,-4.2,-0.7,0.757,0.45,-0.401,68
1.57632E+12,78,-5.11,2.87,-1.75,0.776,0.46,-0.361,67
1.57632E+12,78,-8.96,-1.89,-3.15,0.748,0.453,-0.408,56
1.57632E+12,78,-4.55,0.07,1.26,0.75,0.447,-0.415,56
1.57632E+12,78,-7.14,-3.92,1.4,-0.79,0.351,0.459,55
1.57632E+12,78,-3.29,-5.18,0.7,0.759,0.465,-0.383,26
1.57632E+12,78,-5.81,-3.85,-0.63,0.759,0.471,-0.377,21
1.57632E+12,78,-13.79,-0.21,1.12,0.756,0.472,-0.378,23
1.57632E+12,78,-2.66,-1.61,-0.98,0.744,0.465,-0.403,55
1.57632E+12,78,0.28,-3.08,-15.05,0.761,0.469,-0.377,69
1.57632E+12,78,8.26,4.76,-0.77,0.753,0.462,-0.398,57
1.57632E+12,78,-3.01,-0.98,0.14,0.761,0.477,-0.363,67
1.57632E+12,78,-1.68,-0.56,-3.99,0.769,0.486,-0.34,47
1.57632E+12,78,1.12,3.08,-0.49,-0.846,0.395,0.321,102
1.57632E+12,78,-2.03,2.24,-0.77,0.804,0.489,-0.284,101
1.57632E+12,78,-10.08,4.2,-3.08,0.78,0.49,-0.318,93
1.57632E+12,78,-4.9,0.07,0.77,0.784,0.488,-0.317,79
1.57632E+12,78,1.61,-6.86,3.43,0.783,0.497,-0.298,32
1.57632E+12,78,14.28,-10.29,-3.57,0.771,0.48,-0.351,65
1.57632E+12,78,-3.5,1.19,-1.05,0.768,0.482,-0.347,62
1.57632E+12,78,0.07,-1.26,1.05,0.759,0.478,-0.365,59
1.57632E+12,78,-1.26,-0.28,-1.68,0.763,0.484,-0.352,68
1.57632E+12,78,-1.82,-2.1,1.12,0.768,0.486,-0.343,73
1.57632E+12,78,7.49,0.42,1.12,0.76,0.486,-0.352,66
1.57632E+12,78,-4.62,-1.05,-0.7,0.771,0.493,-0.327,55
1.57632E+12,78,-1.75,-1.26,0.77,0.765,0.494,-0.333,46
1.57632E+12,78,1.47,-6.37,4.76,0.746,0.485,-0.372,69
1.57632E+12,78,0.35,-0.28,-0.21,0.746,0.491,-0.362,56
1.57632E+12,78,-3.99,-1.96,1.19,0.736,0.485,-0.386,61
1.57632E+12,0,-14.98,-6.93,-0.28,0.74,0.488,-0.38,67
1.57632E+12,0,1.89,0.42,1.68,0.743,0.497,-0.361,63
1.57632E+12,0,-15.26,-3.5,-1.82,0.73,0.496,-0.376,59
1.57632E+12,0,-4.34,0.42,0.63,0.707,0.491,-0.411,46
1.57632E+12,0,3.43,-0.7,0.56,0.716,0.506,-0.38,52
1.57632E+12,0,1.47,0.07,0.35,0.725,0.508,-0.368,56
1.57632E+12,0,-1.47,-0.35,-0.07,0.722,0.508,-0.371,56
1.57632E+12,0,-1.75,-0.21,0.07,0.72,0.509,-0.372,56
1.57632E+12,0,-0.84,-1.96,1.61,0.724,0.517,-0.353,24
1.57632E+12,0,-4.83,-0.7,-0.49,0.724,0.515,-0.356,57
1.57632E+12,0,5.39,-1.19,-1.05,0.725,0.507,-0.373,58
1.57632E+12,0,-2.31,-0.98,6.72,0.734,0.523,-0.331,62
1.57632E+12,0,8.96,-6.3,1.68,0.709,0.517,-0.372,37
1.57632E+12,0,-1.89,-1.26,-0.56,0.702,0.514,-0.382,43
1.57632E+12,0,-0.21,-0.28,-0.28,0.708,0.52,-0.369,46
1.57632E+12,0,3.08,0.7,-0.42,0.716,0.522,-0.359,57
1.57632E+12,0,-2.87,0.84,-0.63,0.716,0.525,-0.352,55
1.57632E+12,0,-0.77,0.21,-0.42,0.692,0.516,-0.389,43
1.57632E+12,81,-0.35,0.91,-0.21,0.694,0.516,-0.388,46
1.57632E+12,81,-3.57,0.35,-1.61,0.695,0.522,-0.378,48
1.57632E+12,80,-3.36,-1.68,-0.14,0.696,0.529,-0.368,48
1.57632E+12,81,0.49,0.77,1.26,0.702,0.533,-0.35,52
1.57632E+12,81,-0.42,0.7,1.19,0.701,0.534,-0.349,49
1.57632E+12,81,0.7,-0.91,1.19,0.68,0.531,-0.37,37
1.57632E+12,81,0.28,-0.98,-1.54,0.683,0.534,-0.365,39
1.57632E+12,81,-27.23,-8.68,1.05,0.638,0.526,-0.417,28
1.57632E+12,81,6.37,0.56,-0.91,0.645,0.531,-0.409,24
1.57632E+12,81,-8.89,-3.15,0.28,0.611,0.515,-0.448,23
1.57632E+12,80,3.43,-1.4,-1.54,0.572,0.484,-0.502,18
1.57632E+12,80,-1.12,-0.77,-1.47,0.578,0.497,-0.485,17
1.57632E+12,80,3.5,-0.77,-1.75,0.582,0.504,-0.476,15
1.57632E+12,80,11.83,0.42,3.85,0.579,0.505,-0.476,17
1.57632E+12,80,8.05,0.91,3.08,0.591,0.51,-0.466,22
1.57632E+12,80,20.51,-5.39,8.82,0.659,0.561,-0.359,35
1.57632E+12,80,-69.65,-9.73,-6.72,0.645,0.551,-0.385,41
1.57632E+12,80,3.08,-0.07,-0.35,0.599,0.527,-0.444,26
1.57632E+12,80,-3.92,-1.33,-0.91,0.598,0.533,-0.438,24
1.57632E+12,80,-10.22,-6.23,-4.34,0.586,0.522,-0.456,20
1.57632E+12,80,-3.08,-5.46,-9.24,-0.753,-0.178,0.621,15
1.57632E+12,80,0.98,0.28,-0.7,0.578,0.504,-0.482,18
1.57632E+12,80,2.03,-0.14,-0.84,0.609,0.533,-0.439,18
1.57632E+12,80,23.87,2.38,1.12,0.625,0.544,-0.42,24
1.57632E+12,80,0.21,-0.63,-0.63,0.659,0.572,-0.357,33
1.57632E+12,80,6.65,1.47,1.4,0.651,0.567,-0.371,40
1.57632E+12,80,-3.15,-1.54,-2.03,0.667,0.581,-0.338,46
1.57632E+12,80,1.68,-0.56,-1.61,0.672,0.585,-0.328,30
1.57632E+12,80,2.45,0.28,-0.28,0.669,0.585,-0.329,29
1.57632E+12,80,-2.1,-0.42,-1.05,0.671,0.585,-0.329,30
1.57632E+12,80,-0.35,0.35,0.49,0.671,0.584,-0.331,28
1.57632E+12,80,0.77,-0.49,-1.12,0.682,0.591,-0.311,47
1.57632E+12,80,-1.89,-0.56,-1.05,0.683,0.596,-0.301,48
1.57632E+12,80,-16.38,-2.24,-0.77,0.659,0.577,-0.351,39
1.57632E+12,80,13.72,1.61,0.63,0.655,0.578,-0.351,35
1.57632E+12,80,-2.24,-0.35,0.42,0.66,0.58,-0.346,40
1.57632E+12,80,-2.66,-0.35,-0.91,0.677,0.592,-0.314,54
1.57632E+12,80,-5.18,-2.24,-2.73,0.657,0.579,-0.348,42
1.57632E+12,80,5.6,0.49,-1.4,0.645,0.571,-0.368,31
1.57632E+12,80,4.9,2.59,0.77,0.653,0.575,-0.359,38
1.57632E+12,80,-51.94,-4.2,-0.7,-0.761,-0.312,0.527,15
1.57632E+12,80,20.44,5.53,-2.24,0.583,0.53,-0.452,15
1.57632E+12,0,2.94,0.07,-0.42,0.613,0.546,-0.426,26
1.57632E+12,0,0.56,1.75,-0.63,0.611,0.549,-0.423,19
1.57632E+12,0,-1.61,-1.19,-3.15,-0.74,-0.354,0.516,28
1.57632E+12,0,2.38,-0.07,-0.84,0.618,0.554,-0.414,23
1.57632E+12,0,-0.42,-0.21,-0.91,0.619,0.555,-0.412,27
1.57632E+12,0,10.85,2.03,0.14,0.642,0.578,-0.37,31
1.57632E+12,0,23.52,5.11,1.05,0.687,0.613,-0.274,58
1.57632E+12,0,-3.22,-0.56,-2.8,0.625,0.563,-0.396,26
1.57632E+12,0,3.22,0.63,1.19,0.624,0.564,-0.396,25
1.57632E+12,0,4.97,0.35,-0.98,0.645,0.58,-0.365,32
1.57632E+12,0,-2.66,-0.84,-0.7,0.642,0.58,-0.365,33
1.57632E+12,0,25.06,-2.24,5.04,0.667,0.599,-0.32,46
1.57632E+12,0,-18.13,-15.61,-12.25,0.75,0.644,-0.079,119
1.57632E+12,0,-20.51,11.97,-10.57,0.646,0.601,-0.301,36
1.57632E+12,0,-3.57,-0.21,-1.19,0.652,0.567,-0.37,36
1.57632E+12,0,-17.15,-2.52,-1.96,0.622,0.546,-0.417,27
1.57632E+12,0,-5.95,-0.14,-2.52,0.648,0.565,-0.371,35
1.57632E+12,0,7.35,2.03,1.96,0.637,0.557,-0.391,28
1.57632E+12,0,22.05,4.83,0.77,0.616,0.544,-0.419,26
1.57632E+12,0,-15.4,-3.22,-3.43,0.686,0.594,-0.307,56
1.57632E+12,0,-1.05,-0.21,-0.49,0.656,0.58,-0.359,38
1.57632E+12,0,-7.56,-0.63,-0.07,0.641,0.573,-0.375,32
1.57632E+12,0,2.59,0.63,-0.56,0.626,0.562,-0.398,27
1.57632E+12,0,6.16,1.89,-0.49,0.627,0.563,-0.396,29
1.57632E+12,82,-1.89,-1.47,-0.98,0.649,0.578,-0.362,34
1.57632E+12,82,4.48,4.34,-0.42,0.666,0.585,-0.339,46
1.57632E+12,81,-43.75,-7.07,-7.07,0.731,0.633,-0.161,126
1.57632E+12,81,6.37,3.01,-0.77,0.685,0.594,-0.309,52
1.57632E+12,81,2.31,0.07,0.07,0.674,0.592,-0.32,52
1.57632E+12,81,-39.69,-24.01,-20.23,0.695,0.598,-0.272,90
1.57632E+12,82,-4.27,-2.38,-1.96,0.668,0.58,-0.345,42
1.57632E+12,82,-2.8,0.07,-0.14,0.666,0.586,-0.336,43
1.57632E+12,82,1.4,-0.07,-0.77,0.66,0.581,-0.348,39
1.57632E+12,82,-0.21,-0.28,-0.84,0.667,0.589,-0.331,43
1.57632E+12,82,-4.27,-1.12,-1.4,0.665,0.586,-0.338,41
1.57632E+12,82,-3.85,-3.22,0.84,0.648,0.575,-0.366,36
1.57632E+12,82,-11.27,-1.4,-2.38,0.642,0.572,-0.373,36
1.57632E+12,82,5.11,-0.14,-0.7,0.669,0.597,-0.313,44
1.57632E+12,82,2.87,-1.19,2.31,0.666,0.585,-0.341,43
1.57632E+12,82,-2.31,0.14,-1.96,0.662,0.592,-0.332,47
1.57632E+12,82,4.27,1.26,-0.98,0.658,0.59,-0.335,42
1.57632E+12,82,7.7,0.21,-3.29,0.655,0.588,-0.338,40
1.57632E+12,82,-0.49,1.54,0.7,0.649,0.583,-0.355,40
1.57632E+12,82,5.32,1.82,-3.64,0.642,0.581,-0.358,34
1.57632E+12,82,1.05,-0.14,-0.63,0.647,0.584,-0.352,34
1.57632E+12,82,9.38,2.66,3.22,0.654,0.592,-0.332,38
1.57632E+12,82,1.82,0.7,1.4,0.654,0.594,-0.332,44
1.57632E+12,82,-1.89,-0.56,-0.84,0.65,0.593,-0.336,29
1.57632E+12,82,3.57,-0.77,-0.63,0.652,0.594,-0.334,35
1.57632E+12,82,0.49,-0.56,-0.98,0.653,0.595,-0.335,33
1.57632E+12,82,-0.42,-0.07,-0.91,0.649,0.594,-0.339,35
1.57632E+12,82,0.7,0.35,-0.56,0.651,0.597,-0.332,20
1.57632E+12,82,1.47,2.87,3.57,0.655,0.6,-0.327,20
1.57632E+12,82,-1.82,-0.91,-0.77,0.652,0.599,-0.328,43
1.57632E+12,82,-0.07,-0.35,-0.84,0.654,0.603,-0.321,47
1.57632E+12,82,-2.31,-0.98,-0.77,0.645,0.599,-0.336,43
1.57632E+12,82,-2.73,-2.03,-0.63,0.635,0.595,-0.35,37
1.57632E+12,82,-3.22,-0.56,-0.63,0.631,0.593,-0.356,37
1.57632E+12,82,3.64,0.42,-0.63,0.589,0.563,-0.414,22
1.57632E+12,82,8.33,0.49,0.91,0.598,0.574,-0.396,23
1.57632E+12,0,1.89,-0.07,0.21,0.61,0.588,-0.371,25
1.57632E+12,0,4.97,2.87,-0.84,0.625,0.594,-0.358,29
1.57632E+12,0,8.54,3.22,0.14,0.648,0.606,-0.316,45
1.57632E+12,0,-4.62,-2.03,-0.35,0.656,0.613,-0.297,54
1.57632E+12,0,-0.21,-0.28,-0.42,0.623,0.596,-0.356,32
1.57632E+12,0,0.42,0.14,-0.84,0.62,0.598,-0.356,32
1.57632E+12,0,3.71,1.12,-1.33,0.617,0.597,-0.359,32
1.57632E+12,0,2.24,1.68,-0.84,0.636,0.608,-0.331,37
1.57632E+12,0,0.63,-0.07,-1.05,0.637,0.611,-0.325,40
1.57632E+12,0,0.21,-0.14,-0.77,0.641,0.616,-0.312,37
1.57632E+12,0,0.21,0.28,-0.84,0.665,0.628,-0.268,31
1.57632E+12,76,-0.14,0.49,-1.12,0.609,0.595,-0.368,22
1.57632E+12,76,3.22,0.56,-0.84,0.654,0.626,-0.287,29
1.57632E+12,77,-39.9,-7.49,-1.61,0.633,0.613,-0.327,31
1.57632E+12,78,16.73,12.39,0.84,0.661,0.642,-0.249,21
1.57632E+12,78,-0.63,-0.56,-1.19,0.649,0.629,-0.286,21
1.57632E+12,78,0.98,-0.07,-0.49,0.655,0.634,-0.271,22
1.57632E+12,77,-0.49,0.42,-0.21,0.654,0.636,-0.268,23
1.57632E+12,78,-0.07,-0.21,-0.77,0.656,0.637,-0.264,24
1.57632E+12,78,0.77,-1.05,-1.12,0.656,0.638,-0.262,20
1.57632E+12,79,-0.7,-0.42,-0.63,0.66,0.642,-0.25,23
1.57632E+12,80,17.01,2.73,3.64,0.672,0.652,-0.214,65
1.57632E+12,80,-13.51,-30.73,24.29,-0.641,-0.72,0.186,72
1.57632E+12,80,-2.45,-0.42,-2.31,-0.5,-0.538,0.462,17
1.57632E+12,79,-106.68,-20.02,-5.53,0.488,0.503,-0.496,22
1.57632E+12,78,5.74,2.66,-2.38,-0.532,-0.575,0.423,18
1.57632E+12,78,-7.42,-1.54,-0.14,-0.547,-0.597,0.397,20
1.57632E+12,78,0.21,-0.07,-0.49,-0.549,-0.602,0.391,22
1.57632E+12,78,-2.66,-0.07,-0.42,0.563,0.597,-0.392,22
1.57632E+12,79,-5.81,-1.82,-1.19,-0.516,-0.575,0.425,19
1.57632E+12,80,3.78,0.14,-0.91,-0.499,-0.557,0.444,15
1.57632E+12,80,0.28,-0.07,-0.07,-0.498,-0.559,0.442,15
1.57632E+12,80,2.8,-0.28,-0.56,-0.5,-0.568,0.433,15
1.57632E+12,80,-2.38,-0.56,-0.07,-0.497,-0.571,0.43,17
1.57632E+12,80,-6.65,-0.35,0.49,-0.496,-0.571,0.43,18
1.57632E+12,80,4.2,-0.91,-1.05,-0.487,-0.56,0.442,15
1.57632E+12,80,2.03,-0.07,-0.14,-0.485,-0.566,0.435,16
1.57632E+12,80,6.93,-1.33,0.98,-0.489,-0.578,0.423,18
1.57632E+12,80,21.98,1.75,-0.21,-0.502,-0.605,0.396,20
1.57632E+12,80,-13.23,37.8,-28.07,-0.604,-0.786,0.127,109
1.57632E+12,80,-35.07,-0.56,-4.62,0.572,0.655,-0.299,46
1.57632E+12,80,-4.9,-1.82,-9.1,0.538,0.618,-0.36,23
1.57632E+12,80,0.77,1.12,0.28,0.531,0.6,-0.393,20
1.57632E+12,80,-4.9,-0.07,0.49,0.53,0.602,-0.388,22
1.57632E+12,80,0.42,0.07,-1.19,0.532,0.6,-0.392,21
1.57632E+12,80,4.76,0.07,-0.07,0.534,0.607,-0.383,22
1.57632E+12,80,-1.4,-0.49,-1.12,0.533,0.608,-0.382,23
1.57632E+12,80,-0.56,-0.28,-3.78,0.541,0.615,-0.375,23
1.57632E+12,80,-19.88,0.91,-1.68,-0.499,-0.594,0.407,22
1.57632E+12,80,-2.03,-0.21,-0.49,0.507,0.58,-0.418,18
1.57632E+12,80,0.35,0.21,-0.35,0.509,0.587,-0.41,19
1.57632E+12,80,-0.84,-0.07,-0.21,0.508,0.589,-0.408,21
1.57632E+12,80,5.53,0.77,-0.7,0.509,0.588,-0.41,21
1.57632E+12,80,3.08,1.61,-0.28,0.518,0.598,-0.399,22
1.57632E+12,80,1.12,-0.49,2.94,0.512,0.594,-0.402,22
1.57632E+12,80,2.38,0.21,0.07,0.513,0.591,-0.405,21
1.57632E+12,80,38.57,1.68,0.56,0.503,0.573,-0.427,19
1.57632E+12,80,1.61,0.42,-0.49,0.51,0.585,-0.413,21
1.57632E+12,80,0.91,-0.07,0.07,0.512,0.588,-0.409,21
1.57632E+12,80,-0.49,0.21,-0.42,0.513,0.591,-0.406,22
1.57632E+12,0,22.96,2.52,-2.94,0.523,0.597,-0.399,21
1.57632E+12,0,-3.64,0.07,0.77,0.51,0.586,-0.412,21
1.57632E+12,0,-0.84,-0.07,0.28,0.51,0.586,-0.412,21
1.57632E+12,0,0.42,0.21,0.21,0.516,0.593,-0.403,21
1.57632E+12,0,-0.98,-0.14,-0.14,0.515,0.593,-0.404,21
1.57632E+12,0,1.75,0.14,0.14,0.516,0.596,-0.4,21
1.57632E+12,0,-3.08,0.49,1.4,0.512,0.595,-0.4,22
1.57632E+12,0,-1.12,-1.19,-1.54,0.511,0.589,-0.408,21
1.57632E+12,0,7,0.14,-0.49,0.513,0.596,-0.399,20
1.57632E+12,0,2.8,-0.28,-1.4,0.519,0.599,-0.395,22
1.57632E+12,0,-5.88,0.49,-3.85,0.525,0.598,-0.397,22
1.57632E+12,0,9.1,0.49,-0.56,0.515,0.594,-0.401,22
1.57632E+12,0,2.03,0.42,-0.21,0.517,0.594,-0.402,22
1.57632E+12,0,-0.56,0.07,-0.14,0.519,0.597,-0.397,23
1.57632E+12,79,0.07,-0.42,0.21,0.519,0.598,-0.397,23
1.57632E+12,78,-1.61,-2.52,-0.63,0.5,0.579,-0.419,19
1.57632E+12,78,0.98,-0.49,-0.14,0.502,0.585,-0.413,18
1.57632E+12,78,0.07,-0.07,-0.21,0.503,0.586,-0.412,19
1.57632E+12,78,0.84,-0.14,-0.49,0.496,0.581,-0.417,18
1.57632E+12,78,-8.68,0.07,-1.82,0.499,0.583,-0.416,18
1.57632E+12,78,33.18,1.68,0.84,0.53,0.624,-0.368,15
1.57632E+12,78,-0.21,0.14,-0.07,0.521,0.614,-0.381,18
1.57632E+12,78,-2.38,-0.28,-0.21,0.513,0.608,-0.388,18
1.57632E+12,77,18.48,3.85,-0.42,0.524,0.621,-0.372,21
1.57632E+12,77,1.4,-0.49,0.07,0.553,0.651,-0.331,24
1.57632E+12,76,1.75,0.63,-0.14,0.557,0.658,-0.32,33
1.57632E+12,76,2.17,0.98,0.56,0.561,0.662,-0.312,35
1.57632E+12,77,-19.11,-7.84,-3.57,0.548,0.64,-0.347,30
1.57632E+12,76,-1.61,-0.28,-0.49,0.539,0.629,-0.364,25
1.57632E+12,77,-6.02,1.05,-0.28,0.545,0.638,-0.35,26
1.57632E+12,77,0.14,1.54,0.7,0.539,0.637,-0.352,26
1.57632E+12,77,-0.21,-1.05,-0.56,0.544,0.636,-0.353,27
1.57632E+12,77,-3.43,-0.63,-1.12,0.544,0.638,-0.351,28
1.57632E+12,77,3.29,-1.19,4.83,0.535,0.625,-0.368,28
1.57632E+12,77,5.88,3.15,5.32,0.569,0.674,-0.287,37
1.57632E+12,77,7.42,1.75,-5.46,0.544,0.644,-0.341,28
1.57632E+12,77,-6.02,1.54,2.03,0.55,0.653,-0.324,32
1.57632E+12,77,3.29,0.49,-0.91,0.559,0.658,-0.319,32
1.57632E+12,77,-2.59,1.33,-1.89,0.555,0.652,-0.327,32
1.57632E+12,77,-0.07,-0.84,0.7,0.553,0.652,-0.327,31
1.57632E+12,77,0.07,-0.28,0.07,0.559,0.657,-0.32,32
1.57632E+12,77,0.98,0.14,-0.49,0.555,0.657,-0.32,32
1.57632E+12,77,-1.89,0.7,-2.45,0.554,0.654,-0.326,32
1.57632E+12,77,0.63,-0.21,-0.28,0.552,0.656,-0.324,31
1.57632E+12,77,-9.52,-1.68,-1.89,0.549,0.651,-0.332,32
1.57632E+12,77,37.66,1.82,4.13,0.514,0.613,-0.385,18
1.57632E+12,77,-33.39,12.67,3.71,0.545,0.645,-0.338,75
1.57632E+12,77,13.23,1.96,2.1,0.535,0.644,-0.335,28
1.57632E+12,77,0.35,0.63,-0.56,0.549,0.66,-0.309,32
1.57632E+12,77,0.7,-0.14,-0.28,0.553,0.663,-0.302,33
1.57632E+12,77,-0.91,-0.07,-0.07,0.552,0.663,-0.303,35
1.57632E+12,77,-6.16,-0.49,2.8,0.553,0.664,-0.302,34
1.57632E+12,77,0.07,0.35,0.35,0.548,0.661,-0.307,33
1.57632E+12,77,1.47,-0.21,-0.07,0.548,0.664,-0.303,32
1.57632E+12,77,2.52,0.84,1.75,0.549,0.665,-0.302,34
1.57632E+12,77,0.14,-0.21,-0.56,0.544,0.663,-0.306,33
1.57632E+12,77,-1.89,-0.84,0.28,0.546,0.666,-0.3,33
1.57632E+12,77,-1.4,-0.14,-0.21,0.547,0.668,-0.297,37
1.57632E+12,77,0.7,-0.14,-0.14,0.546,0.668,-0.3,37
1.57632E+12,77,-1.4,0.07,-0.28,0.544,0.667,-0.301,33
1.57632E+12,0,3.29,0.21,1.19,0.545,0.669,-0.3,33
1.57632E+12,0,0.14,0.63,-0.91,0.523,0.649,-0.328,27
1.57632E+12,0,-0.63,-0.42,-0.21,0.533,0.665,-0.305,31
1.57632E+12,0,-7.63,-2.17,-0.14,0.514,0.647,-0.337,28
1.57632E+12,0,1.89,2.66,10.64,0.518,0.649,-0.332,27
1.57632E+12,0,-2.03,-0.91,-3.78,0.524,0.66,-0.316,30
1.57632E+12,0,-2.59,-1.19,2.1,0.519,0.654,-0.326,28
1.57632E+12,0,39.13,3.5,4.69,0.517,0.658,-0.319,25
1.57632E+12,0,-2.1,1.26,0.91,0.524,0.665,-0.309,32
1.57632E+12,0,7.49,1.68,0.35,0.532,0.671,-0.301,32
1.57632E+12,0,1.82,0.49,0.28,0.529,0.67,-0.3,33
1.57632E+12,0,6.65,1.05,0.63,0.528,0.671,-0.299,33
1.57632E+12,0,-1.96,0.63,0.84,0.536,0.679,-0.286,38
1.57632E+12,0,0.21,0.49,0.35,0.534,0.678,-0.287,39
1.57632E+12,0,0.07,0.21,-1.75,0.537,0.682,-0.282,39
1.57632E+12,0,-24.78,-1.68,-1.33,0.499,0.645,-0.34,28
1.57632E+12,0,-1.75,-1.19,0.21,0.501,0.651,-0.331,26
1.57632E+12,79,-0.77,1.4,-2.24,0.501,0.648,-0.335,25
1.57632E+12,79,-0.21,0.28,-0.14,0.514,0.665,-0.31,28
1.57632E+12,78,-0.91,-0.07,-0.63,0.512,0.665,-0.311,28
1.57632E+12,77,0.91,-0.21,-0.42,0.513,0.668,-0.307,29
1.57632E+12,76,3.08,0.14,0.35,0.514,0.67,-0.305,30
1.57632E+12,75,-1.82,-0.21,-0.84,0.514,0.671,-0.303,31
1.57632E+12,75,-2.52,-0.7,-0.77,0.514,0.669,-0.307,32
1.57632E+12,75,2.17,-0.49,-0.14,0.519,0.678,-0.294,34
1.57632E+12,75,-1.75,-0.14,-0.14,0.52,0.681,-0.289,34
1.57632E+12,74,-1.82,-0.21,0.07,0.519,0.682,-0.287,34
1.57632E+12,74,-0.91,-0.28,-0.42,0.515,0.681,-0.29,35
1.57632E+12,74,0.35,-0.14,-0.21,0.518,0.684,-0.285,37
1.57632E+12,74,-0.56,0.14,-0.14,0.517,0.685,-0.285,37
1.57632E+12,74,0.35,-0.07,-0.07,0.516,0.685,-0.285,37
1.57632E+12,74,-0.21,0.63,0.28,0.521,0.692,-0.274,37
1.57632E+12,74,0.84,-0.14,-0.28,0.515,0.69,-0.278,34
1.57632E+12,74,-2.94,-0.35,-0.07,0.513,0.688,-0.281,36
1.57632E+12,74,2.8,-0.07,0.28,0.512,0.686,-0.287,35
1.57632E+12,74,-13.44,-2.8,-4.83,0.508,0.685,-0.289,36
1.57632E+12,74,-1.96,-2.52,-0.28,0.507,0.689,-0.286,32
1.57632E+12,74,28.98,3.92,5.67,0.474,0.655,-0.332,23
1.57632E+12,74,0.7,-5.04,-2.17,0.469,0.654,-0.332,24
1.57632E+12,74,-10.85,-1.4,-0.98,0.458,0.628,-0.364,22
1.57632E+12,74,-6.16,1.33,3.99,0.466,0.65,-0.337,24
1.57632E+12,74,5.74,0.28,-0.35,0.461,0.632,-0.361,22
1.57632E+12,74,18.2,24.99,2.8,0.518,0.684,-0.293,56
1.57632E+12,74,122.92,63.07,18.97,-0.616,-0.786,0.025,174
1.57632E+12,74,-13.93,3.29,2.66,0.556,0.73,-0.24,82
1.57632E+12,74,59.43,58.8,24.5,0.39,0.645,-0.318,19
1.57632E+12,74,-23.8,-9.31,-4.06,0.539,0.731,-0.223,74
1.57632E+12,74,-59.92,8.68,3.22,-0.497,-0.663,0.338,42
1.57632E+12,74,-103.25,-18.2,19.04,-0.534,-0.65,0.383,23
1.57632E+12,74,-124.25,25.9,12.11,-0.519,-0.714,0.285,35
1.57632E+12,74,-5.67,3.29,2.45,-0.504,-0.673,0.329,18
1.57632E+12,74,-1.12,2.66,-0.84,-0.467,-0.615,0.387,13
1.57632E+12,74,8.82,3.92,-3.5,-0.481,-0.637,0.368,14
1.57632E+12,74,-0.42,0.14,-1.05,-0.47,-0.621,0.382,14
1.57632E+12,74,64.26,0.42,-12.18,0.488,0.666,-0.333,15
1.57632E+12,74,1.82,-4.69,0.42,-0.508,-0.688,0.324,20
1.57632E+12,74,4.06,1.26,3.36,-0.514,-0.807,0.191,69
1.57632E+12,74,2.59,-15.05,9.03,-0.378,-0.859,0.344,103
1.57632E+12,74,-51.59,39.13,7.63,0.519,0.707,-0.283,29
1.57632E+12,74,-1.33,-0.63,-0.7,-0.514,-0.679,0.335,16
1.57632E+12,0,-6.72,-0.28,-4.48,-0.509,-0.667,0.347,17
1.57632E+12,0,-5.74,-6.65,-1.12,-0.52,-0.678,0.34,19
1.57632E+12,0,3.36,-1.68,-6.72,-0.519,-0.679,0.334,16
1.57632E+12,0,14.35,13.02,1.68,-0.5,-0.656,0.359,14
1.57632E+12,0,-63.56,-36.61,20.86,-0.494,-0.644,0.363,69
1.57632E+12,0,-3.29,-0.28,-0.56,-0.479,-0.628,0.378,14
1.57632E+12,0,-1.19,-0.07,-2.24,-0.479,-0.627,0.379,14
1.57632E+12,0,6.37,4.13,-8.05,-0.481,-0.632,0.376,14
1.57632E+12,0,-0.7,-0.49,1.33,-0.481,-0.637,0.369,15
1.57632E+12,0,-1.33,-0.07,0.07,-0.48,-0.637,0.369,15
1.57632E+12,0,-1.33,-0.42,-0.07,-0.481,-0.639,0.368,14
1.57632E+12,83,97.79,28.21,-13.58,0.539,0.765,-0.197,22
1.57632E+12,83,20.09,25.27,-10.85,0.572,0.788,-0.115,63
1.57632E+12,82,-14.35,-0.84,2.87,0.502,0.706,-0.281,23
1.57632E+12,82,6.3,-0.35,-0.7,0.497,0.698,-0.296,20
1.57632E+12,82,221.62,-251.09,58.38,-0.54,-0.779,0.312,91
1.57632E+12,82,64.89,21.14,-23.1,0.624,0.775,0,192
1.57632E+12,82,22.89,10.71,-15.12,0.591,0.775,-0.086,145
1.57632E+12,82,80.92,-7.77,-17.29,0.32,0.454,-0.482,24
1.57632E+12,81,12.39,31.22,-4.55,-0.489,-0.743,0.283,47
1.57632E+12,80,-38.22,-2.31,9.94,-0.464,-0.66,0.362,23
1.57632E+12,81,29.82,3.78,10.36,-0.449,-0.657,0.349,14
1.57632E+12,82,2.31,-7.7,0.07,-0.426,-0.626,0.372,15
1.57632E+12,83,18.55,7.28,-13.72,-0.426,-0.637,0.36,14
1.57632E+12,83,1.54,0.35,1.47,-0.435,-0.651,0.35,15
1.57632E+12,82,-10.36,-1.05,-0.77,-0.448,-0.669,0.338,15
1.57632E+12,81,-11.97,26.53,-20.65,-0.452,-0.705,0.325,23
1.57632E+12,81,39.55,3.78,7.77,-0.442,-0.678,0.33,25
1.57632E+12,81,11.76,-1.4,5.46,-0.4,-0.609,0.377,15
1.57632E+12,80,-51.66,-14.21,1.4,0.441,0.68,-0.314,23
1.57632E+12,80,-1.54,4.27,11.62,-0.542,-0.79,0.176,88
1.57632E+12,81,41.93,-31.92,-11.62,0.277,0.494,-0.408,22
1.57632E+12,81,52.36,-43.96,-70.91,-0.502,-0.589,0.518,34
1.57632E+12,81,-83.65,-15.4,57.4,0.36,0.408,-0.389,38
1.57632E+12,81,113.4,56.14,-39.76,0.469,0.466,-0.477,42
1.57632E+12,81,-10.78,-4.06,10.5,0.406,0.423,-0.451,46
1.57632E+12,81,-6.02,9.31,7.91,0.42,0.365,-0.477,48
1.57632E+12,81,-5.39,-14.28,20.02,0.44,0.411,-0.479,46
1.57632E+12,81,6.37,8.26,-5.95,0.411,0.369,-0.466,46
1.57632E+12,81,-1.96,6.93,-0.14,0.497,0.359,-0.5,42
1.57632E+12,81,-10.29,-9.17,30.45,-0.508,-0.52,0.509,33
1.57632E+12,81,120.89,60.13,16.03,0.427,0.724,-0.25,30
1.57632E+12,81,-5.39,-0.7,0.91,-0.397,-0.666,0.327,18
1.57632E+12,81,-6.65,-1.4,0.98,-0.393,-0.668,0.322,19
1.57632E+12,81,0.07,0.14,-0.63,-0.388,-0.662,0.325,18
1.57632E+12,81,0.49,0.7,-0.84,-0.384,-0.655,0.33,17
1.57632E+12,81,3.5,0.28,-0.7,-0.381,-0.655,0.329,18
1.57632E+12,81,2.66,-0.84,3.29,-0.386,-0.658,0.328,18
1.57632E+12,81,2.87,5.32,2.45,-0.399,-0.687,0.309,20
1.57632E+12,81,-21.77,-0.91,-6.16,-0.403,-0.7,0.296,21
1.57632E+12,81,14,-1.82,-0.91,0.432,0.69,-0.305,19
1.57632E+12,81,-6.23,4.69,-0.63,-0.407,-0.715,0.283,24
1.57632E+12,81,-91.28,6.79,21.49,-0.415,-0.721,0.282,23
1.57632E+12,81,4.55,3.36,-0.91,-0.416,-0.737,0.264,22
1.57632E+12,81,7.98,1.96,-3.64,-0.422,-0.751,0.252,22
1.57632E+12,81,-4.62,-1.19,0.49,-0.421,-0.752,0.251,23
1.57632E+12,81,3.36,-1.19,0.63,-0.41,-0.735,0.264,23
1.57632E+12,81,6.65,-0.42,-1.89,-0.41,-0.735,0.265,23
1.57632E+12,81,0.21,-0.56,-0.56,-0.406,-0.725,0.275,23
1.57632E+12,81,-1.33,-0.14,-0.07,-0.405,-0.73,0.269,22
1.57632E+12,0,3.99,1.26,-0.07,-0.405,-0.729,0.271,23
1.57632E+12,0,0.56,0.07,-0.56,-0.404,-0.728,0.272,23
1.57632E+12,0,1.61,-0.77,-0.42,-0.407,-0.73,0.273,23
1.57632E+12,0,2.38,-0.28,0.35,-0.402,-0.73,0.269,23
1.57632E+12,0,0.98,0.35,-0.56,-0.406,-0.736,0.266,23
1.57632E+12,0,-0.07,-0.07,-0.49,-0.406,-0.738,0.264,23
1.57632E+12,0,-5.25,0.14,0.42,-0.398,-0.723,0.277,21
1.57632E+12,0,4.2,0.63,0.98,0.427,0.699,-0.298,20
1.57632E+12,0,-6.16,-0.77,0.28,-0.378,-0.676,0.312,14
1.57632E+12,0,-4.06,-2.52,0.63,-0.378,-0.675,0.313,15
1.57632E+12,0,-24.71,-8.54,5.74,0.344,0.612,-0.349,11
1.57632E+12,0,-1.47,1.33,-0.42,0.354,0.569,-0.392,9
1.57632E+12,0,20.65,2.59,-4.34,-0.368,-0.652,0.328,16
1.57632E+12,0,-3.71,-0.98,-1.05,-0.39,-0.716,0.281,25
1.57632E+12,0,56.14,16.03,-3.92,-0.419,-0.777,0.235,23
1.57632E+12,0,-4.34,0.35,-0.14,0.444,0.732,-0.268,22
1.57632E+12,0,-5.32,0.42,2.24,-0.415,-0.77,0.237,21
1.57632E+12,0,-1.75,1.05,-0.35,-0.405,-0.757,0.245,22
1.57632E+12,0,-0.63,-1.19,0.21,-0.399,-0.749,0.251,20
1.57632E+12,0,-2.38,-0.07,0.98,-0.397,-0.751,0.247,20
1.57632E+12,0,-0.14,-0.07,-0.63,-0.397,-0.754,0.245,21
1.57632E+12,82,-1.05,-0.91,-0.14,-0.4,-0.753,0.248,21
1.57632E+12,82,1.47,0.56,-0.49,-0.396,-0.752,0.247,21
1.57632E+12,82,-1.75,-0.35,0.21,-0.396,-0.755,0.245,22
1.57632E+12,82,-0.91,-0.21,-0.56,-0.394,-0.747,0.251,22
1.57632E+12,82,0.35,-0.21,-0.42,-0.394,-0.754,0.245,22
1.57632E+12,81,-1.33,-0.28,0.77,-0.393,-0.754,0.245,22
1.57632E+12,81,0.49,-0.21,-0.63,-0.393,-0.75,0.251,21
1.57632E+12,80,-2.59,0.42,0.35,-0.39,-0.747,0.252,20
1.57632E+12,80,-0.56,0.07,-0.14,-0.387,-0.743,0.254,20
1.57632E+12,80,-0.84,0.42,-0.35,-0.396,-0.764,0.241,24
1.57632E+12,80,10.08,-5.74,-7.91,-0.476,-0.815,0.194,37
1.57632E+12,80,-4.27,-6.58,-13.58,0.435,0.724,-0.266,21
1.57632E+12,80,-0.7,2.03,-8.4,0.436,0.723,-0.276,20
1.57632E+12,80,9.03,-0.28,-5.18,0.43,0.717,-0.276,18
1.57632E+12,80,-1.75,-0.07,0.35,0.428,0.716,-0.276,18
1.57632E+12,80,4.06,4.27,-6.3,-0.389,-0.736,0.261,19
1.57632E+12,80,-15.47,-3.36,5.46,0.433,0.736,-0.262,23
1.57632E+12,80,-34.93,-7.21,0.84,0.428,0.721,-0.276,20
1.57632E+12,80,-4.13,115.85,97.37,0.432,0.837,0.014,20
1.57632E+12,80,-8.47,-2.45,0.7,0.401,0.681,-0.31,14
1.57632E+12,80,-0.49,-0.14,-0.49,0.401,0.682,-0.31,14
1.57632E+12,80,0.21,-0.07,-0.07,-0.367,-0.7,0.285,14
1.57632E+12,80,23.24,5.53,0.91,-0.384,-0.737,0.264,17
1.57632E+12,80,-33.18,-4.97,-0.21,0.46,0.81,-0.173,21
1.57632E+12,80,-1.33,-0.56,0.21,0.45,0.792,-0.191,22
1.57632E+12,80,6.51,0.42,-2.24,0.454,0.793,-0.197,23
1.57632E+12,80,0.49,-0.21,-0.28,0.451,0.792,-0.197,27
1.57632E+12,80,-1.82,0.42,0.63,0.452,0.799,-0.182,24
1.57632E+12,80,-1.96,0.21,-1.89,0.45,0.789,-0.196,23
1.57632E+12,80,6.51,0.49,3.36,0.462,0.809,-0.174,36
1.57632E+12,80,18.27,-10.22,-0.49,0.483,0.832,-0.109,28
1.57632E+12,80,8.4,-13.09,1.82,-0.461,-0.754,0.245,41
1.57632E+12,80,70.07,21.42,43.96,-0.552,-0.825,0.104,83
1.57632E+12,80,-38.08,-17.57,-9.1,0.471,0.855,-0.082,145
1.57632E+12,80,5.18,-5.6,8.96,-0.449,-0.822,0.193,36
1.57632E+12,80,-4.76,-19.95,-72.8,-0.448,-0.566,0.443,26
1.57632E+12,80,39.9,13.09,-0.21,-0.448,-0.673,0.453,32
1.57632E+12,80,125.37,20.44,-10.01,-0.443,-0.833,0.163,45
1.57632E+12,80,4.2,-3.01,10.71,-0.434,-0.849,0.166,24
1.57632E+12,0,-15.96,5.39,9.87,-0.417,-0.822,0.194,23
1.57632E+12,0,-1.26,14.14,-13.16,-0.408,-0.786,0.238,23
1.57632E+12,0,14.56,0.77,-6.86,-0.423,-0.82,0.219,22
1.57632E+12,0,3.92,2.66,1.26,-0.423,-0.834,0.192,28
1.57632E+12,0,-7.7,1.05,2.1,-0.403,-0.812,0.206,24
1.57632E+12,0,6.37,1.33,-6.72,-0.405,-0.79,0.227,24
1.57632E+12,0,6.3,1.68,-6.72,-0.407,-0.802,0.221,24
1.57632E+12,0,6.09,1.19,-1.4,-0.399,-0.776,0.243,22
1.57632E+12,0,83.16,-19.81,-57.68,-0.404,-0.769,0.248,38
1.57632E+12,0,40.39,0.7,-6.23,-0.472,-0.876,0.07,89
1.57632E+12,0,-3.01,-1.96,1.12,-0.416,-0.84,0.162,36
1.57632E+12,0,-14.35,-5.53,4.9,-0.429,-0.853,0.152,40
1.57632E+12,0,-44.03,-12.53,10.85,0.459,0.82,-0.161,31
1.57632E+12,0,11.41,4.76,-9.38,-0.435,-0.872,0.115,59
1.57632E+12,0,-3.99,0.98,1.54,-0.418,-0.853,0.142,43
1.57632E+12,0,-2.17,-1.54,0.07,-0.423,-0.856,0.143,56
1.57632E+12,0,-1.96,6.09,-2.1,0.457,0.838,-0.134,41
1.57632E+12,0,-0.77,0.21,-1.54,-0.431,-0.858,0.137,35
1.57632E+12,0,3.15,-3.5,2.87,0.453,0.829,-0.149,29
1.57632E+12,0,-9.8,4.9,-9.03,-0.426,-0.848,0.156,43
1.57632E+12,0,10.85,-4.62,5.11,0.46,0.844,-0.126,50
1.57632E+12,0,-3.29,5.67,-4.62,-0.433,-0.861,0.131,58
1.57632E+12,0,8.75,-3.36,2.59,0.459,0.842,-0.132,51
1.57632E+12,0,2.8,4.2,1.68,0.457,0.849,-0.109,50
1.57632E+12,0,0.28,0.21,-0.49,0.456,0.844,-0.132,54
1.57632E+12,86,-4.41,-1.47,-7.35,0.458,0.844,-0.132,46
1.57632E+12,85,6.37,0.28,1.12,0.46,0.857,-0.105,52
1.57632E+12,84,12.6,-1.05,5.6,0.46,0.857,-0.108,49
1.57632E+12,84,-0.56,-0.49,-2.59,0.46,0.857,-0.107,56
1.57632E+12,83,18.2,-13.16,4.27,-0.44,-0.866,0.108,51
1.57632E+12,83,3.64,-6.86,2.66,0.453,0.833,-0.142,29
1.57632E+12,83,-5.39,7.14,1.68,0.448,0.843,-0.132,35
1.57632E+12,83,3.57,-4.13,3.43,0.452,0.847,-0.124,45
1.57632E+12,83,-1.61,1.4,12.81,-0.412,-0.73,0.303,35
1.57632E+12,83,1.26,18.97,10.36,-0.404,-0.804,0.211,28
1.57632E+12,83,3.99,-0.91,-0.49,-0.388,-0.789,0.217,26
1.57632E+12,83,2.59,-0.77,0.63,-0.389,-0.793,0.214,28
1.57632E+12,83,0.42,15.54,7.42,-0.405,-0.805,0.209,34
1.57632E+12,83,6.72,1.05,-2.03,-0.404,-0.818,0.195,41
1.57632E+12,83,11.48,7.21,-9.17,-0.394,-0.795,0.208,39
1.57632E+12,83,-8.96,-7.28,3.08,-0.397,-0.812,0.204,37
1.57632E+12,83,54.46,7.21,19.25,0.442,0.854,-0.103,56
1.57632E+12,83,2.52,5.53,-2.17,-0.428,-0.784,0.237,26
1.57632E+12,83,2.87,1.54,-1.54,-0.43,-0.79,0.229,22
1.57632E+12,83,-5.11,0.21,2.87,-0.428,-0.797,0.218,22
1.57632E+12,83,-2.45,1.96,3.08,-0.424,-0.79,0.221,20
1.57632E+12,83,6.58,-6.37,1.05,-0.428,-0.805,0.2,21
1.57632E+12,83,6.44,-0.63,-3.85,-0.43,-0.811,0.196,37
1.57632E+12,83,2.73,-0.77,-1.26,-0.43,-0.813,0.194,25
1.57632E+12,83,-4.2,2.52,2.17,-0.426,-0.813,0.19,27
1.57632E+12,83,0.7,-2.03,6.16,-0.424,-0.801,0.206,27
1.57632E+12,83,2.52,-2.66,-5.04,-0.428,-0.819,0.187,27
1.57632E+12,83,3.29,3.36,2.45,-0.432,-0.823,0.174,28
1.57632E+12,83,3.71,5.04,-0.91,-0.417,-0.793,0.214,26
1.57632E+12,83,22.12,8.75,0.91,-0.429,-0.829,0.181,25
1.57632E+12,83,-5.39,-15.47,14.49,-0.427,-0.82,0.195,28
1.57632E+12,83,13.37,10.43,1.96,-0.419,-0.796,0.212,30
1.57632E+12,83,-2.38,2.52,-0.35,-0.418,-0.787,0.225,32
1.57632E+12,83,43.68,-14.91,35.21,0.437,0.788,-0.207,34
1.57632E+12,83,12.53,-2.24,-4.76,0.47,0.812,-0.152,48
1.57632E+12,0,2.94,0.7,0.14,-0.435,-0.802,0.202,41
1.57632E+12,0,-19.32,-2.24,1.89,-0.439,-0.812,0.184,43
1.57632E+12,0,-22.61,4.34,5.95,-0.428,-0.785,0.224,32
1.57632E+12,0,6.44,-0.21,1.05,-0.438,-0.792,0.21,31
1.57632E+12,0,-26.04,-0.63,0.84,-0.425,-0.791,0.221,41
1.57632E+12,0,23.66,-6.09,8.12,-0.437,-0.79,0.217,28
1.57632E+12,0,7.35,16.1,-0.21,0.459,0.817,-0.166,28
1.57632E+12,0,-5.04,-9.03,-1.54,-0.471,-0.824,0.227,77
1.57632E+12,0,15.33,-24.5,8.33,-0.493,-0.821,0.265,103
1.57632E+12,0,7,-6.23,-0.07,-0.488,-0.819,0.266,102
1.57632E+12,0,11.69,-21.56,-39.55,0.477,0.477,-0.498,32
1.57632E+12,0,1.96,48.02,0.35,-0.496,-0.529,0.486,43
1.57632E+12,0,5.25,6.23,-6.37,0.533,0.464,-0.533,40
1.57632E+12,0,-1.54,-3.43,1.89,0.545,0.441,-0.545,38
1.57632E+12,0,-56.35,-62.09,-13.65,0.455,0.508,-0.469,37
1.57632E+12,0,21.91,0.63,-0.63,-0.545,-0.542,0.533,35
1.57632E+12,0,0.63,8.33,0.77,-0.517,-0.636,0.516,32
1.57632E+12,0,12.88,2.59,8.12,-0.516,-0.646,0.492,33
1.57632E+12,0,108.57,68.25,15.75,-0.495,-0.766,0.363,45
1.57632E+12,0,-33.39,33.11,-0.7,-0.455,-0.88,0.094,216
1.57632E+12,0,-88.2,-72.24,-14.84,-0.489,-0.695,0.489,126
1.57632E+12,0,-10.01,31.85,-7.98,-0.515,-0.651,0.492,35
1.57632E+12,0,-1.54,18.06,-5.95,-0.414,-0.91,0.018,94
1.57632E+12,0,57.75,21,-8.26,-0.417,-0.824,0.382,102
1.57632E+12,83,-53.76,-20.02,28.84,-0.398,-0.851,0.339,141
1.57632E+12,83,-37.17,-50.75,12.46,-0.429,-0.851,0.302,195
1.57632E+12,82,3.08,0.91,-1.4,-0.467,-0.798,0.373,79
1.57632E+12,83,-2.31,4.69,-3.57,-0.47,-0.796,0.365,75
1.57632E+12,83,2.38,-0.07,-3.15,-0.476,-0.782,0.386,75
1.57632E+12,83,-4.34,-16.24,25.97,-0.483,-0.729,0.472,68
1.57632E+12,83,-4.06,-1.19,-0.35,-0.487,-0.738,0.451,54
1.57632E+12,83,32.13,17.71,-7.28,-0.445,-0.82,0.35,107
1.57632E+12,83,-70.63,-31.22,18.06,-0.381,-0.875,0.299,216
1.57632E+12,83,79.03,86.87,-11.76,-0.429,-0.822,0.367,97
1.57632E+12,83,-14.35,10.57,24.99,-0.421,-0.874,0.161,252
1.57632E+12,83,-82.74,-11.41,-26.53,-0.419,-0.876,0.226,166
1.57632E+12,83,135.87,10.92,-42.84,-0.416,-0.84,0.299,215
1.57632E+12,83,43.47,50.89,-6.65,-0.388,-0.898,0.201,212
1.57632E+12,83,-0.42,9.73,-9.73,-0.419,-0.879,0.227,206
1.57632E+12,83,-2.73,-5.32,-1.82,-0.421,-0.883,0.207,204
1.57632E+12,83,-29.12,9.94,20.23,-0.417,-0.893,0.169,253
1.57632E+12,83,17.5,4.97,-1.47,-0.502,-0.861,0.061,413
1.57632E+12,83,38.01,-39.2,13.23,-0.444,-0.864,0.174,445
1.57632E+12,83,-8.54,32.62,-2.66,-0.394,-0.776,0.486,126
1.57632E+12,83,16.59,3.64,-4.83,-0.389,-0.884,0.259,172
1.57632E+12,83,-20.65,3.08,8.33,-0.398,-0.88,0.258,161
1.57632E+12,83,-80.08,-11.69,-11.48,-0.431,-0.815,0.387,50
1.57632E+12,83,59.15,32.69,10.01,-0.427,-0.843,0.328,84
1.57632E+12,83,-45.71,-25.06,-4.41,-0.421,-0.84,0.332,167
1.57632E+12,83,2.73,3.15,-0.07,-0.42,-0.863,0.189,233
1.57632E+12,83,7.77,1.33,0.49,-0.42,-0.844,0.286,187
1.57632E+12,83,-148.54,-21.56,-21.91,-0.316,-0.891,0.312,224
1.57632E+12,83,83.79,-0.21,-4.41,-0.441,-0.792,0.416,92
1.57632E+12,83,-25.48,23.73,22.75,-0.422,-0.867,0.234,195
1.57632E+12,83,33.53,242.27,193.83,0.56,0.825,-0.039,255
1.57632E+12,83,8.96,40.88,40.46,-0.573,-0.819,0.012,282
1.57632E+12,83,135.31,-90.09,-88.2,-0.461,-0.875,0.145,32
1.57632E+12,83,-1.26,7.98,-1.54,-0.454,-0.544,0.453,39
1.57632E+12,83,16.66,15.96,-23.38,-0.508,-0.53,0.491,38
1.57632E+12,83,126.63,-81.69,153.65,-0.463,-0.67,0.386,31
1.57632E+12,0,-64.4,4.62,-60.62,-0.494,-0.636,0.418,36
1.57632E+12,0,-7.7,1.26,47.04,0.456,0.441,-0.515,30
1.57632E+12,0,-1.89,-5.11,-14.91,0.323,0.259,-0.534,21
1.57632E+12,0,-22.26,7.7,6.09,0.373,0.327,-0.532,18
1.57632E+12,0,16.94,-1.19,-10.29,0.371,0.268,-0.542,17
1.57632E+12,0,0.91,3.99,-1.47,0.418,0.342,-0.533,19
1.57632E+12,0,-4.34,-35.91,22.61,0.349,0.546,-0.406,37
1.57632E+12,0,-10.92,-4.97,-3.22,-0.486,-0.553,0.464,41
1.57632E+12,0,-148.4,22.89,38.99,-0.505,-0.638,0.422,32
1.57632E+12,0,-2.94,1.4,1.05,0.426,0.309,-0.544,24
1.57632E+12,0,13.93,57.82,6.44,0.425,0.199,-0.533,32
1.57632E+12,0,16.52,5.53,1.89,0.453,0.279,-0.548,25
1.57632E+12,0,12.88,-39.13,-8.4,0.376,0.119,-0.539,26
1.57632E+12,0,-11.69,-111.44,86.38,-0.468,-0.697,0.394,34
1.57632E+12,0,97.3,13.86,-61.39,-0.496,-0.634,0.478,33
1.57632E+12,0,109.13,124.18,-102.41,0.52,0.253,-0.472,40
1.57632E+12,0,-56.14,116.76,57.68,0.248,0.71,-0.185,59
1.57632E+12,0,13.58,4.97,-1.89,-0.325,-0.896,0.296,140
1.57632E+12,0,7.7,-3.71,4.9,-0.278,-0.895,0.349,154
1.57632E+12,0,20.02,5.67,51.73,-0.307,-0.911,0.259,131
1.57632E+12,0,-2.66,13.16,-26.25,-0.306,-0.916,0.255,134
1.57632E+12,0,28.77,5.39,-19.81,-0.349,-0.893,0.222,185
1.57632E+12,87,-70.56,23.8,1.12,-0.407,-0.875,0.244,79
1.57632E+12,87,254.45,-122.64,35.14,-0.412,-0.698,0.497,70
1.57632E+12,86,-155.12,138.39,-129.01,-0.212,-0.922,0.289,228
1.57632E+12,86,-36.61,9.17,13.72,-0.32,-0.926,0.096,42
1.57632E+12,85,-6.72,1.26,5.39,-0.35,-0.895,0.121,45
1.57632E+12,85,0.07,-1.33,-0.21,-0.363,-0.878,0.128,34
1.57632E+12,84,0.07,-0.42,-0.63,-0.363,-0.871,0.135,47
1.57632E+12,82,-8.82,1.96,-6.02,0.401,0.909,-0.035,66
1.57632E+12,82,5.32,-4.62,-4.13,-0.35,-0.892,0.123,32
1.57632E+12,82,-7.21,1.75,3.22,-0.357,-0.879,0.121,26
1.57632E+12,82,17.15,0.56,-2.24,-0.338,-0.91,0.095,28
1.57632E+12,82,-8.12,2.59,-4.13,-0.32,-0.927,0.076,51
1.57632E+12,82,6.23,1.19,-1.12,-0.341,-0.905,0.092,23
1.57632E+12,82,-25.13,61.74,3.29,-0.099,0.581,-0.236,8
1.57632E+12,82,109.06,3.78,14.21,0.266,0.689,-0.209,1
1.57632E+12,82,-75.67,0.56,-22.82,0.256,0.65,-0.27,3
1.57632E+12,82,-14.98,-0.35,-0.14,0.242,0.566,-0.357,1
1.57632E+12,82,16.31,6.58,-2.03,0.227,0.585,-0.33,1
1.57632E+12,82,49,-1.12,-9.94,0.257,0.686,-0.208,1
1.57632E+12,82,23.59,8.12,-1.68,0.457,0.78,-0.147,13
1.57632E+12,82,-5.88,-1.05,-0.07,0.388,0.77,-0.089,14
1.57632E+12,82,26.25,-3.43,-7.49,0.443,0.789,-0.041,42
1.57632E+12,82,-53.2,2.59,54.6,0.269,0.68,-0.213,23
1.57632E+12,82,0.35,-0.42,-0.49,0.315,0.715,-0.035,4
1.57632E+12,82,37.03,-57.96,-149.03,0.272,0.702,-0.201,6
1.57632E+12,82,-6.02,1.68,3.22,-0.36,-0.8,0.2,16
1.57632E+12,82,0.63,0.21,0.35,0.37,0.788,-0.205,16
1.57632E+12,82,-10.64,-3.15,3.57,0.359,0.764,-0.223,14
1.57632E+12,82,0.7,-0.28,-0.28,0.353,0.753,-0.227,14
1.57632E+12,82,-3.43,-1.33,0.56,0.354,0.752,-0.228,14
1.57632E+12,82,21.07,9.24,-4.13,-0.347,-0.818,0.186,42
1.57632E+12,82,-2.59,0.7,-0.28,-0.321,-0.892,0.115,60
1.57632E+12,82,-1.75,-2.1,0.77,-0.329,-0.88,0.122,41
1.57632E+12,82,-109.27,-4.2,51.73,0.413,0.881,-0.083,65
1.57632E+12,82,-52.08,-21.98,-1.54,0.246,0.64,-0.297,6
1.57632E+12,82,4.97,-19.53,0.98,0.293,0.713,-0.124,9
1.57632E+12,82,1.47,4.76,0.77,0.314,0.721,-0.109,10
1.57632E+12,82,-0.35,0.77,3.57,0.303,0.71,-0.144,9
1.57632E+12,0,-14.98,1.96,1.33,0.319,0.721,-0.115,13
1.57632E+12,0,-8.89,5.18,2.73,0.306,0.713,-0.135,11
1.57632E+12,0,-11.2,7.21,3.15,0.305,0.713,-0.142,11
1.57632E+12,0,-6.51,7.56,4.62,0.342,0.733,-0.102,14
1.57632E+12,0,10.5,-5.25,-9.03,0.332,0.733,-0.082,10
1.57632E+12,0,11.9,-10.5,-8.54,0.287,0.695,-0.196,8
1.57632E+12,0,-1.61,0.28,3.29,0.332,0.724,-0.139,10
1.57632E+12,0,3.22,-1.96,0.35,0.301,0.711,-0.159,9
1.57632E+12,0,13.16,6.09,-11.34,0.276,0.726,-0.126,9
1.57632E+12,0,-7.77,-3.08,-7.56,-0.372,-0.617,0.373,23
1.57632E+12,0,2.1,-4.55,-2.45,0.358,0.595,-0.356,21
1.57632E+12,0,92.75,221.48,-38.01,0.186,0.253,-0.173,59
1.57632E+12,0,32.9,44.94,-5.39,0.272,0.205,-0.169,61
1.57632E+12,0,29.61,30.66,-13.16,-0.278,-0.66,0.283,49
1.57632E+12,0,27.65,18.06,-19.88,0.278,0.631,-0.271,41
1.57632E+12,0,42.77,5.95,-8.82,0.054,0.921,-0.276,56
1.57632E+12,0,100.45,14.77,-23.45,0.059,-0.998,0,395
1.57632E+12,0,-15.54,-12.18,9.1,-0.018,0.984,-0.163,258
1.57632E+12,0,212.17,-84.56,-80.64,-0.14,-0.139,0.133,317
1.57632E+12,82,197.75,-21.77,-176.33,0.325,0.684,-0.25,4
1.57632E+12,83,-14.35,40.04,-3.57,0.264,0.645,-0.286,23
1.57632E+12,84,9.8,-1.54,3.5,0.343,0.709,-0.173,8
1.57632E+12,83,9.8,-1.54,3.5,0.343,0.709,-0.173,8
1.57632E+12,82,17.08,0.49,11.2,-0.749,0.159,0.627,14
1.57632E+12,82,10.43,0.49,-8.82,0.962,0.261,-0.066,5
1.57632E+12,83,-3.5,0.49,0.42,0.952,0.301,-0.031,5
1.57632E+12,83,-0.28,0.35,2.45,0.947,0.317,-0.037,5
1.57632E+12,82,3.01,-2.03,9.45,0.956,0.279,-0.062,6
1.57632E+12,81,-130.76,-14.49,-3.78,0.886,0.281,-0.339,9
1.57632E+12,81,-5.32,7.07,-4.55,0.584,0.267,-0.698,12
1.57632E+12,80,48.79,1.96,0.98,-0.61,0.134,0.764,11
1.57632E+12,80,9.52,6.3,-3.43,0.943,0.328,-0.033,6
1.57632E+12,80,-2.66,2.03,-3.5,0.941,0.329,-0.052,6
1.57632E+12,80,1.96,0.7,0.07,0.939,0.332,-0.055,6
1.57632E+12,80,-108.29,-17.5,4.62,0.908,0.335,-0.195,8
1.57632E+12,80,33.39,6.86,27.3,0.555,0.33,-0.664,10
1.57632E+12,80,11.62,2.66,-10.15,0.671,0.371,-0.544,17
1.57632E+12,80,-4.48,55.02,-20.44,0.624,0.251,-0.687,18
1.57632E+12,80,-118.44,-40.74,79.1,0.678,0.348,-0.562,14
1.57632E+12,80,63.63,-15.89,-17.92,0.762,0.346,-0.47,18
1.57632E+12,80,18.34,-5.32,-39.62,0.678,0.388,-0.507,26
1.57632E+12,80,1.68,57.05,-17.57,0.813,0.319,-0.425,32
1.57632E+12,80,3.71,-6.58,7.42,0.839,0.378,-0.315,97
1.57632E+12,80,-71.61,-45.43,46.62,0.753,0.539,0.004,225
1.57632E+12,80,-12.6,-12.67,38.99,0.769,0.516,0.152,248
1.57632E+12,80,49.14,-11.62,-74.41,0.788,0.535,0.099,247
1.57632E+12,80,-9.24,-2.03,-41.93,0.584,0.769,0.108,56
1.57632E+12,80,2.52,-4.13,-24.85,0.086,-0.983,-0.159,39
1.57632E+12,80,12.39,-9.45,-18.34,0.538,0.82,0.09,62
1.57632E+12,80,3.71,33.81,8.26,0.519,0.817,0.181,44
1.57632E+12,80,2.94,6.86,-11.55,0.431,0.853,0.115,38
1.57632E+12,80,-3.71,0.63,6.86,0.358,0.873,0.076,52
1.57632E+12,80,-17.99,22.19,35.77,0.289,0.841,0.276,67
1.57632E+12,80,21.91,4.76,-113.54,0.506,0.748,0.341,31
1.57632E+12,80,1.82,-74.9,-89.04,0.248,0.845,0.16,56
1.57632E+12,80,-145.46,1.96,61.53,0.341,0.894,-0.071,274
1.57632E+12,80,14.98,12.32,-5.81,0.024,-0.956,-0.284,159
1.57632E+12,80,22.4,7.07,12.67,0.008,-0.957,-0.289,120
1.57632E+12,80,0.84,6.65,10.29,0.378,0.889,0.224,144
1.57632E+12,80,-4.9,4.48,11.34,0.013,-0.957,-0.289,140
1.57632E+12,80,-112.98,-15.12,-2.38,0.358,0.899,0.165,107
1.57632E+12,0,-102.41,22.54,-2.45,0.345,0.848,0.297,84
1.57632E+12,0,-107.94,-12.95,8.54,0.279,0.879,0,38
1.57632E+12,0,27.16,6.16,23.31,0.281,0.886,0.174,55
1.57632E+12,0,-7.07,17.5,9.52,0.229,0.865,0.198,64
1.57632E+12,0,31.64,0.35,16.8,0.292,0.893,0.187,77
1.57632E+12,0,31.85,12.25,-3.64,0.27,0.882,0.126,91
1.57632E+12,0,-0.35,0.07,0.14,0.279,0.88,0.16,78
1.57632E+12,0,-0.98,0.35,-1.26,0.292,0.884,0.163,85
1.57632E+12,0,0.35,-0.56,1.05,0.289,0.883,0.172,79
1.57632E+12,0,-2.59,0.84,0.14,0.281,0.882,0.149,76
1.57632E+12,0,1.12,-0.14,-0.7,0.278,0.879,0.153,72
1.57632E+12,0,4.69,3.15,2.17,0.29,0.881,0.165,71
1.57632E+12,0,3.64,-3.5,-4.27,0.282,0.865,0.207,70
1.57632E+12,0,-9.8,1.05,6.02,0.289,0.876,0.172,70
1.57632E+12,0,-3.29,11.27,12.88,0.284,0.869,0.193,78
1.57632E+12,0,3.71,-10.71,-7.07,0.296,0.866,0.223,70
1.57632E+12,0,2.66,-0.28,0.07,0.267,0.862,0.2,62
1.57632E+12,0,0.7,-0.07,0.28,0.273,0.863,0.202,64
1.57632E+12,74,0.63,0.14,0.21,0.276,0.863,0.201,65
1.57632E+12,75,0.42,0.21,0.28,0.276,0.863,0.203,65
1.57632E+12,75,-57.96,-11.27,-32.06,0.211,0.835,-0.008,10
1.57632E+12,75,49.7,-26.25,-26.46,0.216,0.841,0.034,45
1.57632E+12,75,45.71,-11.69,-1.26,0.177,0.826,0.063,38
1.57632E+12,75,19.95,-26.04,-30.52,0.19,0.839,0.065,32
1.57632E+12,75,-67.69,4.06,-39.41,0.211,0.853,0.076,49
1.57632E+12,76,13.65,-7.07,-10.5,0.289,0.893,0.074,80
1.57632E+12,75,10.43,3.57,6.93,0.362,0.866,0.297,106
1.57632E+12,78,0.63,4.55,2.1,0.374,0.885,0.24,148
1.57632E+12,78,155.4,58.31,35.14,0.359,0.885,0.215,90
1.57632E+12,80,-3.78,2.87,0.77,0.381,0.865,0.286,109
1.57632E+12,81,-32.55,6.16,-13.16,0.387,0.859,0.301,107
1.57632E+12,83,-0.63,6.93,8.4,0.371,0.854,0.314,99
1.57632E+12,83,-6.09,-4.76,-3.43,0.359,0.871,0.271,98
1.57632E+12,83,7.7,-12.18,-10.01,0.363,0.866,0.301,98
1.57632E+12,83,-13.65,7.14,-1.19,0.364,0.856,0.306,93
1.57632E+12,83,-4.2,1.75,-0.91,0.364,0.847,0.33,89
1.57632E+12,83,-0.35,-0.21,0.42,0.35,0.856,0.309,84
1.57632E+12,83,11.9,0.77,-0.28,0.358,0.856,0.316,93
1.57632E+12,83,-19.88,3.78,2.66,0.19,0.859,0.179,31
1.57632E+12,83,65.03,2.73,27.93,0.259,0.881,0.169,55
1.57632E+12,83,30.94,18.76,10.08,0.346,0.889,0.276,123
1.57632E+12,83,-1.47,0.7,-0.07,0.339,0.877,0.288,103
1.57632E+12,83,0.63,0.07,0.14,0.338,0.873,0.298,99
1.57632E+12,83,-1.26,0.49,-0.28,0.34,0.874,0.294,95
1.57632E+12,83,0.63,0.21,0.42,0.339,0.871,0.3,93
1.57632E+12,83,0.84,1.89,0.7,0.342,0.872,0.299,93
1.57632E+12,83,-25.55,-34.72,-6.86,0.305,0.89,0.208,84
1.57632E+12,83,20.44,1.47,10.99,0.187,0.859,0.15,35
1.57632E+12,83,34.02,-7.77,7.7,0.131,0.835,0.123,17
1.57632E+12,83,6.86,1.61,2.03,0.163,0.847,0.193,42
1.57632E+12,83,4.9,-1.61,2.8,0.234,0.876,0.142,56
1.57632E+12,83,-6.93,-2.87,-0.21,0.31,0.903,0.204,110
1.57632E+12,83,-1.05,-1.61,-0.7,0.301,0.895,0.222,98
1.57632E+12,83,1.89,-1.68,-1.33,0.295,0.891,0.233,98
1.57632E+12,83,-3.29,-3.43,-6.09,0.289,0.885,0.241,89
1.57632E+12,83,-69.37,-31.43,-43.4,0.244,0.891,0.181,76
1.57632E+12,83,16.45,2.94,0.84,0.135,0.827,0.058,14
1.57632E+12,83,-1.61,2.03,0.91,0.192,0.866,0.112,46
1.57632E+12,83,19.46,-1.47,4.69,0.164,0.852,0.097,27
1.57632E+12,83,-25.06,13.37,1.26,0.158,0.831,0.036,21
1.57632E+12,0,-5.81,21.77,8.19,0.136,0.837,0.132,19
1.57632E+12,0,-5.6,-0.21,0.7,0.132,0.824,0.074,21
1.57632E+12,0,5.25,-0.77,-1.89,0.065,0.77,0.036,10
1.57632E+12,0,-2.24,0.77,1.75,0.068,0.766,0.023,10
1.57632E+12,0,-20.58,9.31,2.94,0.137,0.832,0.083,32
1.57632E+12,0,3.15,1.61,-1.61,0.132,0.825,0.065,20
1.57632E+12,0,40.53,7.56,-5.6,0.257,0.911,0.054,36
1.57632E+12,0,2.52,-0.49,-2.38,0.188,0.863,0.132,42
1.57632E+12,0,-28.28,-30.31,-47.95,0.247,0.969,-0.004,257
1.57632E+12,0,-44.66,-53.97,-13.37,0.02,0.641,-0.043,25
1.57632E+12,0,-6.93,-3.85,-0.91,0.157,0.852,-0.059,30
1.57632E+12,0,-4.41,0.98,-1.4,0.11,0.697,-0.111,16
1.57632E+12,0,0.7,0.7,-1.12,0.112,0.699,-0.111,16
1.57632E+12,0,2.59,0.14,0.91,0.11,0.721,-0.102,18
1.57632E+12,0,3.99,1.54,2.31,0.115,0.723,-0.106,18
1.57632E+12,0,2.03,2.59,-3.15,0.116,0.726,-0.106,19
1.57632E+12,0,8.33,0.56,1.4,0.119,0.741,-0.102,19
1.57632E+12,0,4.83,0.7,-2.1,0.126,0.75,-0.104,21
1.57632E+12,0,-2.87,0.84,-10.08,0.145,0.803,-0.085,27
1.57632E+12,0,14.63,4.41,2.59,0.103,0.708,-0.1,18
1.57632E+12,0,-3.71,-0.63,2.31,0.13,0.753,-0.106,21
1.57632E+12,0,-6.02,-3.01,-3.64,0.125,0.741,-0.106,21
1.57632E+12,0,-6.65,-2.94,-3.22,0.132,0.78,-0.09,23
1.57632E+12,0,2.94,2.59,1.54,0.141,0.8,-0.086,24
1.57632E+12,0,-2.59,-1.68,0.98,0.136,0.789,-0.087,23
1.57632E+12,0,-0.91,0.35,1.89,0.139,0.799,-0.084,25
1.57632E+12,0,5.53,0.77,-1.61,0.144,0.802,-0.088,25
1.57632E+12,83,-5.81,-1.33,-1.12,0.143,0.789,-0.095,24
1.57632E+12,82,7.21,1.26,0.35,0.144,0.799,-0.089,25
1.57632E+12,82,-0.14,-0.35,-0.14,0.146,0.797,-0.093,26
1.57632E+12,81,9.8,2.38,-0.28,0.144,0.79,-0.095,25
1.57632E+12,81,-9.87,-1.82,-1.89,0.137,0.777,-0.095,23
1.57632E+12,81,9.17,1.82,-0.21,0.146,0.798,-0.09,26
1.57632E+12,81,3.22,-0.49,0.7,0.152,0.81,-0.087,28
1.57632E+12,81,-1.61,-0.98,1.4,0.15,0.808,-0.086,27
1.57632E+12,81,1.47,0.14,-0.56,0.151,0.813,-0.083,27
1.57632E+12,81,-1.61,-1.89,-0.98,0.144,0.785,-0.096,23
1.57632E+12,81,0.21,-0.7,-0.14,0.136,0.755,-0.108,20
1.57632E+12,81,1.61,0.56,0.49,0.139,0.758,-0.109,20
1.57632E+12,81,1.68,0.28,-0.91,0.139,0.76,-0.107,21
1.57632E+12,81,0.42,-1.19,-1.96,0.144,0.776,-0.102,22
1.57632E+12,81,7.84,4.13,3.57,0.146,0.777,-0.103,23
1.57632E+12,81,1.89,-3.22,2.17,0.148,0.774,-0.108,23
1.57632E+12,81,2.87,0.14,0.14,0.151,0.785,-0.104,23
1.57632E+12,81,10.92,2.66,0.7,0.153,0.799,-0.095,25
1.57632E+12,81,1.33,0.7,-2.66,0.162,0.804,-0.1,28
1.57632E+12,81,-2.45,0.07,-0.84,0.165,0.818,-0.093,28
1.57632E+12,81,1.54,1.33,0.28,0.164,0.825,-0.083,31
1.57632E+12,81,-5.74,1.61,0.49,0.157,0.809,-0.087,27
1.57632E+12,81,1.33,-0.21,-2.03,0.162,0.813,-0.093,28
1.57632E+12,81,-4.55,-1.61,-1.19,0.165,0.821,-0.09,28
1.57632E+12,81,10.15,3.29,1.4,0.167,0.82,-0.095,28
1.57632E+12,81,1.12,0.77,-0.7,0.169,0.821,-0.096,29
1.57632E+12,81,-6.09,-2.03,0.98,0.169,0.824,-0.091,29
1.57632E+12,81,-5.67,-1.61,-0.42,0.169,0.813,-0.101,28
1.57632E+12,81,1.75,0.21,-0.21,0.164,0.804,-0.103,27
1.57632E+12,81,2.17,-2.52,1.47,0.166,0.812,-0.098,28
1.57632E+12,81,1.05,0.14,0.14,0.17,0.82,-0.095,28
1.57632E+12,81,14.21,7.35,-0.77,0.155,0.768,-0.114,23
1.57632E+12,81,-4.06,-1.61,0.21,0.17,0.815,-0.099,29
1.57632E+12,0,-4.69,-1.54,-2.8,0.17,0.813,-0.098,28
1.57632E+12,0,5.6,1.75,-0.21,0.169,0.808,-0.102,28
1.57632E+12,0,1.68,0.84,0.28,0.17,0.808,-0.103,28
1.57632E+12,0,-23.1,-7.7,-6.37,0.165,0.805,-0.097,26
1.57632E+12,0,2.17,-0.35,-1.61,0.165,0.793,-0.107,25
1.57632E+12,0,6.09,2.03,0.63,0.171,0.796,-0.113,26
1.57632E+12,0,2.24,-0.49,0.14,0.162,0.769,-0.122,20
1.57632E+12,0,1.75,0.84,0.77,0.166,0.78,-0.117,23
1.57632E+12,0,-0.14,-0.07,-0.07,0.165,0.777,-0.118,23
1.57632E+12,0,0.28,-0.56,0.07,0.167,0.782,-0.116,23
1.57632E+12,0,2.59,0.84,0.91,0.163,0.771,-0.12,20
1.57632E+12,0,1.4,0.14,-0.07,0.168,0.78,-0.118,23
1.57632E+12,0,1.19,-0.21,-0.14,0.168,0.781,-0.117,22
1.57632E+12,0,0.49,-0.35,0.07,0.164,0.762,-0.126,20
1.57632E+12,0,1.26,0.56,0.77,0.168,0.777,-0.119,23
1.57632E+12,0,1.12,-0.14,0.07,0.169,0.781,-0.116,22
1.57632E+12,79,0.63,0.7,-0.07,0.171,0.784,-0.115,23
1.57632E+12,79,2.87,-0.21,-0.77,0.186,0.829,-0.094,31
1.57632E+12,79,14.7,2.59,0.42,0.177,0.794,-0.115,25
1.57632E+12,79,8.47,0.77,0.56,0.188,0.828,-0.096,32
1.57632E+12,79,-3.78,-1.4,-1.82,0.193,0.84,-0.091,34
1.57632E+12,79,-8.19,-0.7,-1.12,0.188,0.827,-0.1,31
1.57632E+12,80,6.09,1.19,0.28,0.191,0.832,-0.1,32
1.57632E+12,80,8.89,1.68,1.4,0.192,0.836,-0.095,34
1.57632E+12,80,-1.89,-0.35,-0.28,0.191,0.826,-0.105,32
1.57632E+12,80,-4.62,0.35,2.73,0.187,0.821,-0.101,30
1.57632E+12,80,5.25,1.33,0.56,0.189,0.824,-0.1,30
1.57632E+12,81,12.6,3.36,0.63,0.189,0.821,-0.102,32
1.57632E+12,81,-24.64,-26.6,21.63,0.196,0.929,-0.028,116
1.57632E+12,82,-13.3,-11.62,3.08,0.203,0.856,-0.093,41
1.57632E+12,82,2.03,1.4,1.12,0.204,0.837,-0.107,18
1.57632E+12,81,-2.59,-0.7,-0.07,0.202,0.839,-0.101,35
1.57632E+12,81,-0.14,-0.21,-0.14,0.199,0.832,-0.102,33
1.57632E+12,81,0.35,-1.61,-0.91,0.198,0.835,-0.098,28
1.57632E+12,81,-0.07,0.14,0.07,0.199,0.831,-0.102,24
1.57632E+12,81,6.23,2.38,1.12,0.196,0.822,-0.106,29
1.57632E+12,81,-3.08,-1.19,-1.26,0.199,0.822,-0.109,30
1.57632E+12,81,-1.26,-1.26,-0.56,0.2,0.825,-0.107,28
1.57632E+12,81,0.07,-0.7,-0.7,0.199,0.824,-0.107,0
1.57632E+12,81,-7.07,-2.03,-0.77,0.199,0.819,-0.111,28
1.57632E+12,81,-1.12,-0.49,-0.07,0.199,0.823,-0.106,28
1.57632E+12,81,-1.12,-0.56,-0.07,0.197,0.817,-0.107,28
1.57632E+12,81,-1.47,-0.63,-0.42,0.198,0.814,-0.112,27
1.57632E+12,81,-2.8,-0.42,0.14,0.196,0.813,-0.11,27
1.57632E+12,81,7.35,1.82,-0.49,0.199,0.818,-0.109,23
1.57632E+12,81,25.06,10.71,-0.98,0.202,0.828,-0.104,32
1.57632E+12,81,34.09,-3.5,8.05,0.216,0.878,-0.056,56
1.57632E+12,81,-5.32,-15.68,18.97,0.217,0.869,-0.078,56
1.57632E+12,81,2.38,3.01,1.54,0.2,0.846,-0.081,32
1.57632E+12,81,2.45,-7.7,6.37,0.213,0.861,-0.071,37
1.57632E+12,81,-0.35,13.3,-5.95,0.203,0.866,-0.051,38
1.57632E+12,81,-2.94,-3.36,2.1,0.21,0.865,-0.065,24
1.57632E+12,81,-16.59,-4.48,-1.82,0.193,0.83,-0.088,28
1.57632E+12,81,-0.98,1.26,-2.66,0.19,0.816,-0.1,26
1.57632E+12,81,1.26,0.28,-0.98,0.183,0.783,-0.122,23
1.57632E+12,81,17.15,1.61,3.85,0.176,0.764,-0.129,22
1.57632E+12,81,40.81,9.1,-6.3,0.204,0.853,-0.073,45
1.57632E+12,81,-117.95,-10.36,20.79,0.188,0.724,-0.166,23
1.57632E+12,81,-6.93,0.63,7.63,0.173,0.7,-0.166,18
1.57632E+12,81,4.83,1.75,1.19,-0.096,0.719,0.09,17
1.57632E+12,0,19.53,1.54,1.61,0.18,0.729,-0.158,18
1.57632E+12,0,-4.06,0.77,-3.99,-0.097,0.715,0.093,16
1.57632E+12,0,3.22,0.91,-1.47,-0.092,0.729,0.084,18
1.57632E+12,0,2.17,-0.35,1.26,-0.085,0.709,0.083,16
1.57632E+12,0,14.56,2.73,-1.75,-0.081,0.713,0.078,15
1.57632E+12,0,1.68,0.7,-0.49,-0.087,0.737,0.077,17
1.57632E+12,0,0.21,0.98,-2.66,-0.086,0.74,0.075,18
1.57632E+12,0,-8.47,-0.56,-0.42,-0.08,0.731,0.072,17
1.57632E+12,0,-0.63,-0.14,0.14,-0.077,0.72,0.072,16
1.57632E+12,0,0.49,0.28,-0.14,-0.079,0.72,0.074,16
1.57632E+12,0,5.53,0.07,0.77,-0.083,0.727,0.075,16
1.57632E+12,0,2.45,-0.07,0.42,-0.081,0.72,0.076,16
1.57632E+12,0,-0.28,0.07,0.21,-0.079,0.719,0.074,15
1.57632E+12,74,-3.36,-0.07,-1.61,-0.081,0.729,0.073,16
1.57632E+12,74,-0.42,0.14,0.56,-0.078,0.718,0.073,15
1.57632E+12,73,-0.91,0.14,-1.96,-0.078,0.723,0.072,15
1.57632E+12,73,-2.03,-0.84,2.94,-0.084,0.719,0.079,15
1.57632E+12,74,-8.05,-0.7,-5.18,-0.079,0.706,0.078,15
1.57632E+12,75,-1.19,0.77,-1.68,-0.074,0.71,0.072,15
1.57632E+12,75,-14.98,-0.49,-0.49,-0.079,0.706,0.078,17
1.57632E+12,75,1.68,0.14,-3.99,-0.081,0.693,0.084,16
1.57632E+12,76,37.59,3.57,4.62,-0.077,0.698,0.078,16
1.57632E+12,76,21.56,-2.03,17.08,-0.097,0.934,0.028,112
1.57632E+12,75,-62.3,-6.02,-22.61,0.214,0.822,-0.116,27
1.57632E+12,74,-10.92,0.77,3.01,-0.085,0.716,0.08,14
1.57632E+12,73,6.02,1.05,2.8,-0.093,0.724,0.085,14
1.57632E+12,72,-0.14,0.77,1.75,-0.088,0.724,0.08,15
1.57632E+12,71,2.03,0.14,-1.61,-0.081,0.726,0.073,15
1.57632E+12,70,8.19,4.9,-7.28,-0.072,0.723,0.064,14
1.57632E+12,69,-3.99,0.35,2.38,-0.07,0.729,0.061,14
1.57632E+12,69,0.35,0.07,-0.28,-0.067,0.721,0.061,14
1.57632E+12,69,-1.82,-1.4,4.62,-0.071,0.698,0.072,14
1.57632E+12,69,0.84,0.98,-0.91,-0.07,0.704,0.07,13
1.57632E+12,69,-5.18,0.35,-0.56,-0.07,0.707,0.069,14
1.57632E+12,69,-0.77,-0.35,2.03,-0.067,0.708,0.065,15
1.57632E+12,69,1.68,0.7,-2.59,-0.064,0.71,0.062,14
1.57632E+12,69,-9.17,-1.82,0.84,-0.059,0.685,0.066,14
1.57632E+12,69,-17.85,-4.83,2.87,-0.055,0.696,0.058,14
1.57632E+12,69,-5.6,-0.14,-3.29,-0.055,0.696,0.058,14
1.57632E+12,69,4.06,1.05,-0.56,-0.053,0.689,0.059,14
1.57632E+12,69,-1.26,-0.21,0.21,-0.053,0.687,0.059,14
1.57632E+12,69,-0.98,-0.14,-1.61,-0.053,0.7,0.055,14
1.57632E+12,69,0.14,-0.35,0.91,-0.051,0.679,0.06,14
1.57632E+12,69,-4.06,-0.7,-3.22,-0.048,0.661,0.064,13
1.57632E+12,69,5.81,1.19,2.24,-0.053,0.671,0.065,14
1.57632E+12,69,1.75,0.14,-0.56,-0.053,0.685,0.06,14
1.57632E+12,69,86.94,24.64,1.4,-0.045,0.734,0.034,15
1.57632E+12,69,16.24,-16.66,23.31,0.239,0.948,-0.003,202
1.57632E+12,69,-59.29,10.08,-1.61,0.1,0.906,0.157,126
1.57632E+12,69,-5.04,-6.86,19.46,0.144,0.893,0.073,106
1.57632E+12,69,-1.96,8.12,-3.92,0.171,0.936,0.011,115
1.57632E+12,69,6.09,1.82,-0.63,0.158,0.925,-0.002,92
1.57632E+12,69,2.17,0.28,0.28,0.15,0.919,-0.001,90
1.57632E+12,69,-0.56,0.42,-1.96,0.146,0.916,0,98
1.57632E+12,69,-100.8,113.47,111.51,-0.059,-0.939,0.178,118
1.57632E+12,69,41.79,28.63,-20.02,0.164,0.805,-0.076,32
1.57632E+12,69,-16.52,6.51,2.87,0.185,0.862,-0.048,40
1.57632E+12,69,-2.17,55.79,-2.73,0.182,0.94,0.038,117
1.57632E+12,69,-3.5,1.4,-3.5,0.161,0.921,-0.024,66
1.57632E+12,69,1.61,1.96,0.56,0.16,0.927,-0.026,74
1.57632E+12,0,0.84,-1.33,0.98,0.16,0.932,-0.025,79
1.57632E+12,0,-1.68,-0.35,0.07,0.158,0.929,-0.025,78
1.57632E+12,0,-1.4,-0.63,0.7,0.158,0.932,-0.019,78
1.57632E+12,0,-1.26,-0.14,-1.26,0.158,0.935,-0.021,78
1.57632E+12,0,0.14,1.75,-0.28,0.156,0.929,-0.021,75
1.57632E+12,0,-2.45,2.87,0.98,0.157,0.933,-0.015,75
1.57632E+12,0,1.12,1.75,-0.14,0.158,0.928,-0.017,75
1.57632E+12,0,1.47,0.28,-1.54,0.157,0.935,-0.014,78
1.57632E+12,0,1.89,0.91,-0.28,0.156,0.933,-0.016,79
1.57632E+12,0,0.84,-0.07,-0.07,0.155,0.933,-0.012,81
1.57632E+12,0,1.26,0.35,-0.28,0.154,0.936,-0.011,83
1.57632E+12,0,-0.07,-0.28,0.14,0.155,0.934,-0.014,79
1.57632E+12,73,1.33,-0.42,0.07,0.154,0.931,-0.013,81
1.57632E+12,73,-0.21,0.35,-0.28,0.153,0.934,-0.013,85
1.57632E+12,72,8.26,4.27,-3.99,0.152,0.93,-0.018,98
1.57632E+12,73,1.54,0.35,0.7,0.154,0.92,-0.018,74
1.57632E+12,73,-0.14,0.49,-0.28,0.155,0.924,-0.017,81
1.57632E+12,73,0.28,-0.84,0.42,0.158,0.929,-0.017,86
1.57632E+12,73,63,62.72,34.79,0.2,0.939,0.06,104
1.57632E+12,73,92.05,36.47,9.87,-0.038,-0.886,-0.45,141
1.57632E+12,72,-13.37,6.23,-65.17,0.249,0.965,0.049,226
1.57632E+12,72,-3.57,10.08,-8.4,0.227,0.948,0.018,114
1.57632E+12,73,7.56,7.21,-4.97,0.222,0.962,0.012,109
1.57632E+12,72,-7.35,3.15,0.28,0.223,0.957,0.007,144
1.57632E+12,73,-2.59,1.82,-0.07,0.209,0.953,0.008,111
1.57632E+12,73,2.59,-0.77,0.14,0.208,0.947,0.007,113
1.57632E+12,74,-0.07,0.7,-0.77,0.207,0.949,0.009,117
1.57632E+12,76,-0.7,0.07,0.14,0.208,0.95,0.009,117
1.57632E+12,76,-4.2,0.63,-1.89,0.207,0.948,0.01,117
1.57632E+12,77,-1.05,-0.42,-0.42,0.206,0.95,0.012,131
1.57632E+12,78,2.1,-0.63,1.19,0.207,0.952,0.011,141
1.57632E+12,79,-0.14,0.21,1.26,0.208,0.951,0.014,135
1.57632E+12,79,-0.7,0.63,-1.4,0.205,0.947,0.01,129
1.57632E+12,79,-0.56,0.42,-0.7,0.204,0.948,0.012,130
1.57632E+12,79,-2.24,1.54,-2.73,0.201,0.947,0.011,130
1.57632E+12,79,5.6,5.95,3.08,0.225,0.962,0.02,220
1.57632E+12,79,-0.7,-6.3,-7,0.229,0.96,0.038,197
1.57632E+12,79,0.91,-0.56,-0.35,0.228,0.96,0.039,198
1.57632E+12,79,-0.14,-0.21,0.07,0.23,0.96,0.04,198
1.57632E+12,79,2.59,2.87,3.36,0.227,0.959,0.039,191
1.57632E+12,79,0.84,-0.07,0.7,0.229,0.959,0.039,192
1.57632E+12,79,0.49,0.14,0.49,0.231,0.959,0.042,196
1.57632E+12,79,-0.21,-0.49,0.07,0.231,0.959,0.042,197
1.57632E+12,79,0.56,0.21,-0.35,0.231,0.96,0.041,199
1.57632E+12,79,0.35,0.35,-0.63,0.232,0.96,0.042,200
1.57632E+12,79,-0.28,-0.14,-0.42,0.231,0.959,0.042,200
1.57632E+12,79,0.21,0.07,-0.07,0.231,0.96,0.043,198
1.57632E+12,79,-0.7,0.56,-1.4,0.23,0.96,0.042,195
1.57632E+12,79,-0.49,-1.47,-1.47,0.229,0.96,0.04,198
1.57632E+12,79,-3.29,-1.33,-1.33,0.225,0.959,0.038,209
1.57632E+12,79,1.05,1.61,-1.54,0.23,0.96,0.038,197
1.57632E+12,79,2.94,-3.57,-4.48,0.231,0.96,0.038,197
1.57632E+12,79,1.89,-0.77,3.29,0.227,0.963,0.037,194
1.57632E+12,79,3.71,3.5,2.94,0.223,0.966,0.031,206
1.57632E+12,79,-3.78,-2.17,0.49,0.222,0.964,0.037,195
1.57632E+12,79,-0.63,-0.14,-1.19,0.22,0.965,0.038,205
1.57632E+12,79,-1.75,-0.91,-1.75,0.22,0.964,0.039,195
1.57632E+12,79,1.12,0.28,0.07,0.222,0.965,0.043,201
1.57632E+12,79,0.42,-0.07,-0.56,0.222,0.965,0.044,201
1.57632E+12,79,0.84,0.91,-1.05,0.221,0.964,0.046,200
1.57632E+12,0,0.14,-0.21,1.12,0.222,0.964,0.043,196
1.57632E+12,0,-0.63,0.35,0.14,0.223,0.964,0.041,197
1.57632E+12,0,4.27,-2.66,14,0.228,0.966,0.028,211
1.57632E+12,0,-11.97,-10.01,-0.63,0.291,0.896,0.154,116
1.57632E+12,0,-1.12,2.59,-4.41,0.269,0.884,0.162,98
1.57632E+12,0,0.14,0.28,-0.14,0.289,0.888,0.175,107
1.57632E+12,0,157.29,-98.21,-57.05,0.283,0.851,0.417,119
1.57632E+12,0,-60.06,100.1,69.02,0.329,0.664,0.432,20
1.57632E+12,0,-61.18,87.92,-9.66,0.083,0.59,-0.209,23
1.57632E+12,0,-132.72,-21.21,109.48,0.368,0.832,0.244,86
1.57632E+12,0,26.39,24.92,36.75,0.399,0.734,0.149,187
1.57632E+12,0,17.78,2.31,-9.8,0.009,0.7,-0.044,42
1.57632E+12,0,15.61,4.48,-24.43,-0.015,0.586,-0.201,28
1.57632E+12,0,136.85,-62.02,172.76,-0.025,0.619,-0.217,28
1.57632E+12,0,-126,-49.07,-37.03,0.286,0.723,-0.106,18
1.57632E+12,0,93.73,-17.64,15.68,0.188,0.717,0.046,11
1.57632E+12,0,-127.82,-4.9,-13.23,0.422,0.668,0.22,3
1.57632E+12,0,-84.84,-28.14,-18.13,0.203,0.68,-0.191,0
1.57632E+12,0,90.93,42.35,10.64,0.106,0.654,-0.356,0
1.57632E+12,0,15.4,-49.98,-59.15,0.366,0.632,-0.308,0
1.57632E+12,0,55.37,62.16,-29.26,0.497,0.609,-0.29,0
1.57632E+12,0,-126.28,-174.86,85.05,0.719,0.642,0.031,0
1.57632E+12,0,60.9,37.73,22.33,0.409,0.722,-0.274,0
1.57632E+12,0,16.03,-17.29,15.54,0.323,0.767,-0.161,0
1.57632E+12,0,74.34,90.93,67.27,0.563,0.594,-0.263,0
1.57632E+12,0,23.73,6.09,-16.66,0.327,0.637,-0.247,0
1.57632E+12,0,-217.28,8.26,16.24,0.375,0.568,-0.46,0
1.57632E+12,96,-69.79,41.65,-50.26,0.113,0.559,-0.629,0
1.57632E+12,96,-1.54,10.57,-27.93,0.086,0.444,-0.821,0
1.57632E+12,97,-41.51,-32.41,-69.51,0.068,0.101,-0.947,0
1.57632E+12,98,14.63,9.8,-37.87,0.541,0.386,-0.625,0
1.57632E+12,99,39.9,-83.86,32.06,0.506,0.456,-0.548,0
1.57632E+12,99,-40.39,-12.95,72.45,0.523,0.825,0.016,0
1.57632E+12,99,-9.73,13.16,-11.13,0.492,0.847,0.048,0
1.57632E+12,99,2.8,22.54,55.79,0.464,0.807,0.174,0
1.57632E+12,99,-14.56,12.32,1.89,0.291,0.699,0.565,0
1.57632E+12,99,-16.45,59.71,-9.1,0.295,0.485,-0.539,0
1.57632E+12,99,-6.58,29.4,2.24,0.196,0.174,-0.846,0
1.57632E+12,99,7.84,6.86,6.02,0.283,0.173,-0.853,0
1.57632E+12,99,-0.77,-2.1,0.56,0.297,0.176,-0.852,0
1.57632E+12,99,8.54,-34.3,1.33,0.323,0.255,-0.791,0
1.57632E+12,99,20.93,-1.75,-23.1,0.241,0.159,-0.83,0
1.57632E+12,99,2.24,12.88,-11.06,0.512,0.179,-0.778,0
1.57632E+12,99,17.71,-36.47,-6.16,0.422,0.233,-0.693,0
